ax, ay, az, gx, gy, gz, lat, lng, speed
0.1399,-0.5820,0.5769,38.2156,47.5922,-155.7465,0.000000,0.000000,0.00
0.2979,0.0791,0.8003,1.3351,-18.4479,24.4904,0.000000,0.000000,0.00
0.5105,0.2566,0.9265,21.0876,-14.6484,-13.6185,0.000000,0.000000,0.00
0.1750,0.1101,0.8276,-15.7471,66.1469,37.7655,0.000000,0.000000,0.00
0.7400,0.3167,0.9419,-2.7008,22.7737,-7.7972,0.000000,0.000000,0.00
0.4868,-0.0020,0.8333,0.7019,-0.8926,-0.1907,0.000000,0.000000,0.00
0.4075,0.0410,0.8489,-0.2441,-0.4959,-2.0981,0.000000,0.000000,0.00
0.4829,0.0564,0.8108,-2.0294,1.1520,0.8469,0.000000,0.000000,0.00
0.4441,0.0598,0.8562,-2.5406,1.0986,0.6638,0.000000,0.000000,0.00
0.4087,0.0774,0.8716,-2.7237,2.0294,0.4883,0.000000,0.000000,0.00
-0.0308,0.0537,1.1597,0.6104,-14.1907,6.1646,0.000000,0.000000,0.00
0.4397,0.0950,0.8459,-2.4033,1.2360,0.0687,0.000000,0.000000,0.00
0.5381,0.0715,0.7683,-0.5264,-4.5624,1.1749,0.000000,0.000000,0.00
0.5007,0.1445,0.8293,-2.4567,0.8011,0.5341,0.000000,0.000000,0.00
0.3823,0.0876,0.8586,-3.8986,1.3504,0.5798,0.000000,0.000000,0.00
0.1533,0.1060,0.9465,8.4381,18.1046,-3.4485,0.000000,0.000000,0.00
0.3086,0.0361,0.9031,1.7471,-4.3030,1.0300,0.000000,0.000000,0.00
0.3447,0.0383,0.8955,-2.7542,0.7553,0.7477,0.000000,0.000000,0.00
0.3369,0.0493,0.9016,-3.1815,0.4654,1.2207,0.000000,0.000000,0.00
0.2859,0.1179,1.0486,-2.1667,-26.4130,21.5378,0.000000,0.000000,0.00
0.4287,0.0659,0.8716,-2.1210,-0.5798,0.3052,0.000000,0.000000,0.00
0.4336,0.0608,0.8584,-2.5787,2.4033,0.7629,0.000000,0.000000,0.00
0.4375,0.0911,0.8772,6.9427,3.5934,-18.3029,0.000000,0.000000,0.00
0.5491,0.0461,0.7654,-8.1329,-5.1727,12.7716,0.000000,0.000000,0.00
0.4236,0.0593,0.8542,1.0376,-0.2060,-4.3793,0.000000,0.000000,0.00
0.4438,0.0691,0.8584,-2.8610,0.7172,0.9155,0.000000,0.000000,0.00
0.4363,0.0605,0.8535,-2.8152,0.6104,0.7553,0.000000,0.000000,0.00
0.4517,0.0637,0.8555,-2.8763,0.7858,0.9537,0.000000,0.000000,0.00
0.4438,0.0674,0.8523,-2.7237,0.5875,0.8850,0.000000,0.000000,0.00
0.4453,0.0547,0.8525,-2.7924,0.8621,0.8087,0.000000,0.000000,0.00
0.4412,0.0559,0.8521,-2.8915,0.9003,0.9689,0.000000,0.000000,0.00
0.4465,0.0635,0.8513,-2.9221,0.6485,0.9003,0.000000,0.000000,0.00
0.4463,0.0605,0.8372,-2.9755,0.5112,0.9613,0.000000,0.000000,0.00
0.4431,0.0613,0.8457,-2.7924,0.8011,0.8316,0.000000,0.000000,0.00
0.4502,0.0625,0.8508,-2.7542,0.8545,0.9537,0.000000,0.000000,0.00
0.4485,0.0642,0.8472,-2.9221,0.6714,0.8774,0.000000,0.000000,0.00
0.4509,0.0623,0.8616,-2.8763,0.6638,0.7019,0.000000,0.000000,0.00
0.4451,0.0627,0.8555,-2.8229,0.8163,0.7172,0.000000,0.000000,0.00
0.4434,0.0635,0.8445,-2.7466,0.6561,0.6180,0.000000,0.000000,0.00
0.4492,0.0598,0.8411,-2.8915,0.8545,0.8392,0.000000,0.000000,0.00
0.4436,0.0525,0.8479,-2.9144,0.9079,0.9232,0.000000,0.000000,0.00
0.4531,0.0588,0.8484,-2.8229,0.8163,0.8545,0.000000,0.000000,0.00
0.4480,0.0544,0.8523,-2.9144,0.6409,0.8774,0.000000,0.000000,0.00
0.4473,0.0627,0.8501,-2.8839,0.6409,0.8087,0.000000,0.000000,0.00
0.4443,0.0552,0.8508,-2.8152,0.9232,0.8011,0.000000,0.000000,0.00
0.4519,0.0618,0.8513,-2.7924,0.7401,0.9003,0.000000,0.000000,0.00
0.4465,0.0603,0.8521,-2.8687,0.6943,0.8621,0.000000,0.000000,0.00
0.4478,0.0557,0.8506,-2.8992,0.6561,0.9613,0.000000,0.000000,0.00
0.4478,0.0544,0.8433,-2.8915,0.6866,0.9460,0.000000,0.000000,0.00
0.4497,0.0574,0.8401,-2.9144,0.6561,0.8926,0.000000,0.000000,0.00
0.4485,0.0620,0.8550,-2.8076,0.7324,0.8011,0.000000,0.000000,0.00
0.4490,0.0608,0.8530,-2.9602,0.9003,0.9155,0.000000,0.000000,0.00
0.4504,0.0571,0.8494,-2.8076,0.9689,0.7858,0.000000,0.000000,0.00
0.4543,0.0559,0.8557,-2.8534,0.7706,0.7706,0.000000,0.000000,0.00
0.4475,0.0613,0.8518,-2.8610,0.8087,0.7401,0.000000,0.000000,0.00
0.4500,0.0610,0.8506,-2.9068,0.7935,0.8926,0.000000,0.000000,0.00
0.4546,0.0569,0.8479,-2.7695,0.7324,0.8850,0.000000,0.000000,0.00
0.4521,0.0618,0.8528,-2.7924,0.9537,0.7935,0.000000,0.000000,0.00
0.4473,0.0593,0.8452,-3.0670,0.7629,0.8316,0.000000,0.000000,0.00
0.4458,0.0576,0.8523,-2.8992,0.7935,0.8774,0.000000,0.000000,0.00
0.4431,0.0630,0.8423,-2.7313,0.8545,0.8240,0.000000,0.000000,0.00
0.4443,0.0649,0.8486,-2.8610,0.7172,0.8163,0.000000,0.000000,0.00
0.4485,0.0537,0.8494,-2.8992,0.6180,0.8087,0.000000,0.000000,0.00
0.4543,0.0596,0.8469,-2.7161,0.6943,0.9003,0.000000,0.000000,0.00
0.4558,0.0630,0.8457,-2.8381,0.9460,0.8087,0.000000,0.000000,0.00
0.4500,0.0537,0.8469,-2.7084,0.8621,0.8774,0.000000,0.000000,0.00
0.4507,0.0613,0.8525,-2.9221,0.6332,0.8469,0.000000,0.000000,0.00
0.4492,0.0581,0.8481,-3.0899,0.6638,0.8926,0.000000,0.000000,0.00
0.4475,0.0579,0.8440,-2.9755,0.7935,0.8087,0.000000,0.000000,0.00
0.4531,0.0649,0.8435,-2.7924,0.5417,0.8621,0.000000,0.000000,0.00
0.4507,0.0598,0.8542,-2.7084,0.7401,0.7629,0.000000,0.000000,0.00
0.4512,0.0564,0.8384,-2.6016,0.8926,0.8240,0.000000,0.000000,0.00
0.4565,0.0571,0.8455,-2.9297,0.8163,0.9460,0.000000,0.000000,0.00
0.4480,0.0571,0.8450,-2.8534,0.6714,0.9460,0.000000,0.000000,0.00
0.4460,0.0627,0.8503,-2.9373,0.8469,0.7553,0.000000,0.000000,0.00
0.4529,0.0593,0.8416,-2.6703,0.6256,0.7248,0.000000,0.000000,0.00
0.4456,0.0544,0.8420,-2.8534,0.7248,0.9537,0.000000,0.000000,0.00
0.4458,0.0557,0.8450,-2.8229,0.8698,0.7935,0.000000,0.000000,0.00
0.4473,0.0608,0.8538,-2.9068,0.7095,0.8545,0.000000,0.000000,0.00
0.4478,0.0647,0.8438,-2.7618,0.7095,0.9384,0.000000,0.000000,0.00
0.4509,0.0564,0.8455,-2.8915,0.6485,0.7935,0.000000,0.000000,0.00
0.4512,0.0586,0.8474,-2.7618,0.6638,0.8087,0.000000,0.000000,0.00
0.4500,0.0583,0.8430,-2.8076,0.8545,0.9079,0.000000,0.000000,0.00
0.4473,0.0632,0.8367,-2.8687,0.7248,0.8545,0.000000,0.000000,0.00
0.4514,0.0593,0.8496,-2.8458,0.9537,0.7248,0.000000,0.000000,0.00
0.4473,0.0642,0.8494,-2.8763,0.6638,1.0071,0.000000,0.000000,0.00
0.4500,0.0605,0.8499,-2.9678,0.8774,0.8087,0.000000,0.000000,0.00
0.4514,0.0571,0.8511,-2.8763,0.8469,0.8316,0.000000,0.000000,0.00
0.4443,0.0562,0.8491,-3.0594,0.5798,0.9918,0.000000,0.000000,0.00
0.4519,0.0583,0.8408,-2.8152,0.8163,0.8163,0.000000,0.000000,0.00
0.4521,0.0601,0.8474,-2.8915,0.8011,0.8316,0.000000,0.000000,0.00
0.4424,0.0620,0.8479,-2.8839,0.7019,0.8774,0.000000,0.000000,0.00
0.4507,0.0608,0.8430,-2.6474,0.8621,0.8087,0.000000,0.000000,0.00
0.4509,0.0637,0.8408,-2.8076,0.7095,0.8011,0.000000,0.000000,0.00
0.4526,0.0547,0.8555,-2.9144,0.8926,0.8774,0.000000,0.000000,0.00
0.4507,0.0610,0.8457,-2.8152,0.7248,0.9537,0.000000,0.000000,0.00
0.4478,0.0627,0.8491,-2.8381,0.5646,0.7706,0.000000,0.000000,0.00
0.4495,0.0605,0.8472,-2.9907,0.8392,0.7858,0.000000,0.000000,0.00
0.4512,0.0610,0.8494,-2.8839,0.6332,0.7858,0.000000,0.000000,0.00
0.4478,0.0649,0.8420,-2.8458,0.5875,0.9766,0.000000,0.000000,0.00
0.4558,0.0625,0.8411,-2.8534,0.7858,0.8774,0.000000,0.000000,0.00
0.4468,0.0583,0.8462,-2.8305,0.8545,0.8163,0.000000,0.000000,0.00
0.4517,0.0547,0.8457,-2.7084,0.6561,0.8850,0.000000,0.000000,0.00
0.4531,0.0654,0.8438,-2.8610,0.7324,0.8163,0.000000,0.000000,0.00
0.4495,0.0610,0.8403,-2.9068,0.7324,0.9689,0.000000,0.000000,0.00
0.4529,0.0613,0.8516,-2.8381,0.8087,0.8621,0.000000,0.000000,0.00
0.4504,0.0598,0.8374,-2.8763,0.7477,0.8469,0.000000,0.000000,0.00
0.4463,0.0608,0.8394,-2.8610,0.6866,0.7553,0.000000,0.000000,0.00
0.4468,0.0596,0.8450,-2.9297,0.7248,0.8469,0.000000,0.000000,0.00
0.4539,0.0574,0.8435,-2.9144,0.7935,0.7324,0.000000,0.000000,0.00
0.4446,0.0583,0.8496,-2.8458,0.6332,0.8621,0.000000,0.000000,0.00
0.4504,0.0610,0.8445,-2.9831,0.6256,0.9384,0.000000,0.000000,0.00
0.4504,0.0681,0.8550,-2.8229,0.6638,0.7477,0.000000,0.000000,0.00
0.4536,0.0576,0.8433,-2.9449,0.8316,0.9537,0.000000,0.000000,0.00
0.4531,0.0557,0.8506,-2.7466,0.7172,0.8469,0.000000,0.000000,0.00
0.4492,0.0623,0.8486,-2.7542,0.7706,0.7629,0.000000,0.000000,0.00
0.4514,0.0654,0.8506,-2.7618,0.6256,0.9003,0.000000,0.000000,0.00
0.4536,0.0588,0.8545,-2.8915,0.8163,0.9232,0.000000,0.000000,0.00
0.4495,0.0591,0.8506,-2.8381,0.6714,0.8545,0.000000,0.000000,0.00
0.4407,0.0618,0.8523,-2.9602,0.6866,0.6866,0.000000,0.000000,0.00
0.4512,0.0554,0.8464,-2.8763,0.8392,0.8316,0.000000,0.000000,0.00
0.4534,0.0625,0.8433,-2.8839,0.7935,0.9003,0.000000,0.000000,0.00
0.4519,0.0569,0.8398,-2.8915,0.8621,0.7172,0.000000,0.000000,0.00
0.4514,0.0603,0.8501,-2.7618,0.5875,0.7248,0.000000,0.000000,0.00
0.4443,0.0596,0.8462,-2.8229,0.6638,0.7782,0.000000,0.000000,0.00
0.4524,0.0603,0.8472,-2.9602,0.7935,0.7935,0.000000,0.000000,0.00
0.4504,0.0598,0.8467,-2.7695,0.8392,0.7935,0.000000,0.000000,0.00
0.4512,0.0576,0.8564,-2.9449,0.8392,0.8850,0.000000,0.000000,0.00
0.4541,0.0547,0.8528,-2.7847,0.7248,0.8469,0.000000,0.000000,0.00
0.4475,0.0627,0.8489,-2.9144,0.6638,0.5646,0.000000,0.000000,0.00
0.4475,0.0559,0.8467,-3.1052,0.6714,0.7935,0.000000,0.000000,0.00
0.4482,0.0620,0.8354,-2.8839,0.7172,0.6714,0.000000,0.000000,0.00
0.4578,0.0601,0.8516,-2.9144,0.8011,0.8850,0.000000,0.000000,0.00
0.4558,0.0588,0.8452,-2.9678,0.9003,0.7935,0.000000,0.000000,0.00
0.4526,0.0596,0.8499,-2.8992,0.9003,0.7019,0.000000,0.000000,0.00
0.4524,0.0598,0.8535,-2.7847,0.6256,0.8011,0.000000,0.000000,0.00
0.4539,0.0598,0.8474,-2.9297,0.7935,0.9460,0.000000,0.000000,0.00
0.4529,0.0642,0.8440,-2.8534,0.7706,0.8163,0.000000,0.000000,0.00
0.4553,0.0510,0.8472,-2.9755,0.7324,0.7782,0.000000,0.000000,0.00
0.4490,0.0645,0.8398,-2.9602,0.7782,0.6561,0.000000,0.000000,0.00
0.4504,0.0593,0.8486,-2.7695,0.7935,0.7858,0.000000,0.000000,0.00
0.4473,0.0605,0.8479,-2.8381,0.8240,0.8698,0.000000,0.000000,0.00
0.4514,0.0579,0.8445,-2.7237,0.9232,0.9537,0.000000,0.000000,0.00
0.4526,0.0569,0.8381,-2.9755,0.7858,0.9308,0.000000,0.000000,0.00
0.4458,0.0588,0.8447,-2.9602,0.5722,0.8545,0.000000,0.000000,0.00
0.4502,0.0603,0.8467,-3.0594,0.8392,0.8087,0.000000,0.000000,0.00
0.4502,0.0549,0.8394,-2.9068,0.7477,0.7248,0.000000,0.000000,0.00
0.4490,0.0547,0.8469,-2.9068,0.6561,0.8850,0.000000,0.000000,0.00
0.4536,0.0566,0.8477,-2.9297,0.6866,0.7401,0.000000,0.000000,0.00
0.4478,0.0613,0.8523,-2.8152,0.6027,0.9155,0.000000,0.000000,0.00
0.4524,0.0615,0.8462,-2.9449,0.7401,1.0300,0.000000,0.000000,0.00
0.4480,0.0579,0.8508,-2.8458,0.7858,0.8698,0.000000,0.000000,0.00
0.4519,0.0623,0.8445,-2.9297,0.7095,0.7172,0.000000,0.000000,0.00
0.4565,0.0525,0.8362,-3.0136,0.6943,0.7935,0.000000,0.000000,0.00
0.4475,0.0598,0.8374,-3.0899,0.9537,0.8698,0.000000,0.000000,0.00
0.4495,0.0613,0.8442,-2.7847,0.6866,0.8469,0.000000,0.000000,0.00
0.4548,0.0581,0.8447,-2.9526,0.6790,0.8698,0.000000,0.000000,0.00
0.4509,0.0610,0.8391,-2.9678,1.0452,0.8698,0.000000,0.000000,0.00
0.4524,0.0615,0.8481,-2.7390,0.4807,0.8926,0.000000,0.000000,0.00
0.4500,0.0598,0.8459,-3.0212,0.8850,0.8621,0.000000,0.000000,0.00
0.4526,0.0596,0.8450,-2.9068,0.8698,0.9918,0.000000,0.000000,0.00
0.4495,0.0640,0.8452,-2.9144,0.6180,0.9232,0.000000,0.000000,0.00
0.4507,0.0537,0.8477,-2.8381,0.7477,0.8316,0.000000,0.000000,0.00
0.4495,0.0608,0.8401,-2.9221,0.7782,0.7019,0.000000,0.000000,0.00
0.4539,0.0564,0.8542,-2.8915,0.7706,0.9232,0.000000,0.000000,0.00
0.4460,0.0554,0.8447,-2.7161,0.4883,0.5875,0.000000,0.000000,0.00
0.4509,0.0630,0.8440,-2.8229,0.6943,0.7706,0.000000,0.000000,0.00
0.4487,0.0588,0.8381,-2.8839,0.7401,0.9460,0.000000,0.000000,0.00
0.4463,0.0610,0.8408,-2.7924,0.8163,0.9308,0.000000,0.000000,0.00
0.4517,0.0566,0.8550,-2.9068,0.8774,0.7935,0.000000,0.000000,0.00
0.4490,0.0586,0.8477,-2.9373,0.7324,0.8392,0.000000,0.000000,0.00
0.4529,0.0569,0.8484,-3.0289,0.6180,0.8926,0.000000,0.000000,0.00
0.4526,0.0559,0.8521,-2.8381,0.6104,0.7401,0.000000,0.000000,0.00
0.4456,0.0603,0.8389,-2.8763,0.6714,0.7477,0.000000,0.000000,0.00
0.4541,0.0623,0.8450,-2.8305,0.9232,0.9003,0.000000,0.000000,0.00
0.4509,0.0591,0.8389,-3.0212,0.7706,0.9079,0.000000,0.000000,0.00
0.4521,0.0647,0.8450,-3.0060,0.8621,0.6561,0.000000,0.000000,0.00
0.4514,0.0586,0.8367,-2.8458,0.8163,0.7401,0.000000,0.000000,0.00
0.4617,0.0574,0.8411,-2.9373,0.5951,0.6866,0.000000,0.000000,0.00
0.4543,0.0581,0.8447,-2.9297,0.8011,0.7629,0.000000,0.000000,0.00
0.4485,0.0581,0.8411,-2.9602,0.7401,1.0147,0.000000,0.000000,0.00
0.4500,0.0583,0.8428,-3.0136,0.6714,0.8392,0.000000,0.000000,0.00
0.4521,0.0593,0.8472,-2.7771,0.8698,0.8926,0.000000,0.000000,0.00
0.4475,0.0588,0.8472,-2.8000,0.8011,0.8774,0.000000,0.000000,0.00
0.4478,0.0615,0.8425,-2.8992,0.7935,0.8392,0.000000,0.000000,0.00
0.4482,0.0586,0.8523,-2.8534,0.7782,0.9460,0.000000,0.000000,0.00
0.4490,0.0588,0.8481,-2.8839,0.7095,0.7706,0.000000,0.000000,0.00
0.4553,0.0527,0.8494,-2.9602,0.8774,0.7858,0.000000,0.000000,0.00
0.4473,0.0610,0.8445,-2.9449,0.4959,0.8240,0.000000,0.000000,0.00
0.4438,0.0515,0.8403,-2.8229,0.8774,0.8850,0.000000,0.000000,0.00
0.4524,0.0596,0.8564,-2.8915,0.6943,0.9232,0.000000,0.000000,0.00
0.4500,0.0691,0.8345,-2.8610,0.9766,0.8926,0.000000,0.000000,0.00
0.4536,0.0613,0.8457,-2.8687,0.5798,0.9537,0.000000,0.000000,0.00
0.4502,0.0610,0.8440,-2.9526,0.8469,0.8392,0.000000,0.000000,0.00
0.4485,0.0637,0.8411,-2.8992,0.5569,0.6638,0.000000,0.000000,0.00
0.4495,0.0576,0.8442,-2.8229,0.6790,0.9079,0.000000,0.000000,0.00
0.4529,0.0569,0.8472,-2.8992,0.6638,0.8469,0.000000,0.000000,0.00
0.4551,0.0681,0.8391,-2.7542,0.8240,0.6332,0.000000,0.000000,0.00
0.4514,0.0581,0.8472,-2.8381,0.7706,0.8545,0.000000,0.000000,0.00
0.4492,0.0571,0.8391,-2.8763,0.7553,0.7858,0.000000,0.000000,0.00
0.4492,0.0630,0.8433,-2.8687,0.7858,0.7019,0.000000,0.000000,0.00
0.4543,0.0630,0.8440,-2.7542,0.6409,0.9308,0.000000,0.000000,0.00
0.4526,0.0593,0.8457,-2.8687,0.6485,0.7248,0.000000,0.000000,0.00
0.4534,0.0605,0.8457,-2.7771,0.8545,0.8545,0.000000,0.000000,0.00
0.4526,0.0569,0.8418,-2.8839,0.7782,0.8698,0.000000,0.000000,0.00
0.4517,0.0627,0.8494,-2.8687,0.7477,0.6714,0.000000,0.000000,0.00
0.4480,0.0664,0.8503,-2.9221,0.3738,0.9384,0.000000,0.000000,0.00
0.4524,0.0552,0.8452,-2.9907,0.8621,0.7935,0.000000,0.000000,0.00
0.4509,0.0549,0.8442,-2.9068,0.7401,0.8774,0.000000,0.000000,0.00
0.4500,0.0571,0.8440,-2.8534,0.5798,0.9003,0.000000,0.000000,0.00
0.4546,0.0615,0.8379,-2.8763,0.8316,0.7172,0.000000,0.000000,0.00
0.4512,0.0591,0.8391,-2.7390,0.8316,0.7782,0.000000,0.000000,0.00
0.4563,0.0527,0.8438,-2.8076,0.5951,0.9537,0.000000,0.000000,0.00
0.4543,0.0544,0.8379,-2.8839,0.6561,0.8087,0.000000,0.000000,0.00
0.4534,0.0535,0.8469,-2.8381,0.8850,0.6943,0.000000,0.000000,0.00
0.4495,0.0613,0.8474,-2.9297,0.7782,0.6485,0.000000,0.000000,0.00
0.4517,0.0581,0.8481,-2.8839,0.6485,0.8774,0.000000,0.000000,0.00
0.4517,0.0618,0.8508,-2.8458,0.6485,0.7172,0.000000,0.000000,0.00
0.4480,0.0659,0.8381,-2.9449,0.7553,0.8163,0.000000,0.000000,0.00
0.4563,0.0618,0.8423,-2.9068,0.9232,0.9308,0.000000,0.000000,0.00
0.4563,0.0547,0.8396,-3.0441,0.6866,0.8011,0.000000,0.000000,0.00
0.4561,0.0586,0.8430,-2.9678,0.8698,0.7706,0.000000,0.000000,0.00
0.4436,0.0601,0.8433,-2.8763,0.7095,0.9842,0.000000,0.000000,0.00
0.4551,0.0657,0.8406,-2.8534,0.5951,0.7935,0.000000,0.000000,0.00
0.4539,0.0615,0.8455,-2.8458,0.7019,0.7858,0.000000,0.000000,0.00
0.4495,0.0552,0.8376,-2.9449,0.7324,0.7935,0.000000,0.000000,0.00
0.4443,0.0615,0.8442,-2.8992,0.6790,0.8087,0.000000,0.000000,0.00
0.4521,0.0601,0.8423,-2.9144,0.8011,0.9689,0.000000,0.000000,0.00
0.4573,0.0559,0.8479,-3.0441,0.6561,0.9155,0.000000,0.000000,0.00
0.4536,0.0601,0.8362,-2.8229,0.6485,0.8240,0.000000,0.000000,0.00
0.4585,0.0583,0.8430,-2.9144,0.8392,0.8240,0.000000,0.000000,0.00
0.4541,0.0549,0.8389,-2.9221,0.7172,0.8926,0.000000,0.000000,0.00
0.4490,0.0603,0.8530,-2.9068,0.5493,0.9613,0.000000,0.000000,0.00
0.4487,0.0605,0.8472,-2.9373,0.8087,0.7095,0.000000,0.000000,0.00
0.4561,0.0613,0.8401,-3.0823,0.8087,0.8926,0.000000,0.000000,0.00
0.4548,0.0544,0.8496,-3.0441,0.6561,0.7782,0.000000,0.000000,0.00
0.4487,0.0562,0.8457,-2.9831,0.7935,0.8774,0.000000,0.000000,0.00
0.4507,0.0623,0.8420,-2.8534,0.5417,0.6485,0.000000,0.000000,0.00
0.4556,0.0583,0.8403,-2.8458,0.6714,0.8926,0.000000,0.000000,0.00
0.4490,0.0581,0.8401,-2.8763,0.7324,0.8469,0.000000,0.000000,0.00
0.4514,0.0603,0.8459,-2.9144,0.8698,0.9384,0.000000,0.000000,0.00
0.4512,0.0586,0.8445,-3.0746,0.7401,0.8926,0.000000,0.000000,0.00
0.4495,0.0637,0.8372,-2.9221,0.9384,0.8392,0.000000,0.000000,0.00
0.4529,0.0618,0.8472,-2.8915,0.8163,0.9079,0.000000,0.000000,0.00
0.4507,0.0574,0.8438,-2.9678,0.9537,0.8469,0.000000,0.000000,0.00
0.4517,0.0596,0.8428,-2.8763,0.6638,0.8316,0.000000,0.000000,0.00
0.4531,0.0576,0.8403,-2.9602,0.9689,0.8621,0.000000,0.000000,0.00
0.4546,0.0613,0.8333,-2.8305,0.8392,0.8545,0.000000,0.000000,0.00
0.4543,0.0630,0.8379,-2.8458,0.7706,0.8698,0.000000,0.000000,0.00
0.4507,0.0581,0.8379,-2.8152,0.7629,0.8545,0.000000,0.000000,0.00
0.4553,0.0649,0.8455,-2.9144,0.6561,0.7858,0.000000,0.000000,0.00
0.4480,0.0557,0.8511,-2.8534,0.6256,0.8545,0.000000,0.000000,0.00
0.4563,0.0645,0.8408,-2.7771,0.8011,0.8011,0.000000,0.000000,0.00
0.4541,0.0574,0.8403,-2.9526,0.6104,0.8621,0.000000,0.000000,0.00
0.4590,0.0618,0.8384,-2.9907,0.6790,0.8316,0.000000,0.000000,0.00
0.4529,0.0564,0.8342,-2.9144,0.7172,0.7782,0.000000,0.000000,0.00
0.4548,0.0598,0.8425,-2.8381,0.8545,1.0147,0.000000,0.000000,0.00
0.4553,0.0608,0.8491,-2.9068,0.7858,0.8240,0.000000,0.000000,0.00
0.4497,0.0583,0.8401,-2.8381,0.7477,0.6027,0.000000,0.000000,0.00
0.4602,0.0562,0.8457,-2.9221,0.5875,0.6866,0.000000,0.000000,0.00
0.4561,0.0608,0.8381,-2.8152,0.6485,0.8163,0.000000,0.000000,0.00
0.4487,0.0596,0.8337,-2.9373,0.7782,0.7477,0.000000,0.000000,0.00
0.4546,0.0593,0.8459,-2.8915,0.4959,0.9232,0.000000,0.000000,0.00
0.4463,0.0662,0.8398,-2.8763,0.9766,0.8698,0.000000,0.000000,0.00
0.4517,0.0601,0.8420,-2.8229,0.9079,0.9918,0.000000,0.000000,0.00
0.4526,0.0625,0.8440,-3.0136,0.7935,0.7629,0.000000,0.000000,0.00
0.4509,0.0603,0.8394,-2.9373,0.8240,0.8774,0.000000,0.000000,0.00
0.4524,0.0596,0.8447,-2.9221,0.7553,0.8774,0.000000,0.000000,0.00
0.4575,0.0576,0.8479,-2.9602,0.9232,0.7401,0.000000,0.000000,0.00
0.4521,0.0598,0.8403,-2.7466,0.6180,0.6866,0.000000,0.000000,0.00
0.4509,0.0569,0.8401,-2.8992,0.6485,0.8621,0.000000,0.000000,0.00
0.4460,0.0603,0.8535,-3.0136,0.9079,0.8316,0.000000,0.000000,0.00
0.4492,0.0525,0.8418,-3.0441,0.7629,0.9003,0.000000,0.000000,0.00
0.4526,0.0576,0.8369,-2.8992,0.6866,0.7401,0.000000,0.000000,0.00
0.4551,0.0620,0.8328,-3.0594,0.8545,0.8011,0.000000,0.000000,0.00
0.4543,0.0635,0.8411,-2.8229,0.7706,0.7553,0.000000,0.000000,0.00
0.4539,0.0630,0.8447,-2.9068,0.7553,0.8392,0.000000,0.000000,0.00
0.4482,0.0579,0.8447,-3.0289,0.7477,1.0071,0.000000,0.000000,0.00
0.4590,0.0581,0.8411,-2.8305,0.7248,0.7782,0.000000,0.000000,0.00
0.4502,0.0632,0.8484,-2.8839,0.8469,0.8163,0.000000,0.000000,0.00
0.4531,0.0581,0.8464,-2.9755,0.7553,0.8926,0.000000,0.000000,0.00
0.4509,0.0613,0.8315,-2.8992,0.8163,0.8698,0.000000,0.000000,0.00
0.4502,0.0586,0.8269,-2.9907,0.5112,0.7324,0.000000,0.000000,0.00
0.4480,0.0596,0.8440,-2.8229,0.8316,0.8469,0.000000,0.000000,0.00
0.4502,0.0554,0.8389,-2.8763,0.6409,0.8621,0.000000,0.000000,0.00
0.4507,0.0642,0.8418,-2.9602,0.8240,0.7019,0.000000,0.000000,0.00
0.4531,0.0586,0.8433,-2.9221,0.7629,0.7477,0.000000,0.000000,0.00
0.4507,0.0598,0.8396,-2.8610,0.8087,0.8545,0.000000,0.000000,0.00
0.4565,0.0549,0.8430,-2.8610,0.9003,0.7553,0.000000,0.000000,0.00
0.4495,0.0579,0.8472,-3.0136,0.6104,0.9460,0.000000,0.000000,0.00
0.4553,0.0576,0.8420,-2.7924,0.6790,0.8163,0.000000,0.000000,0.00
0.4504,0.0542,0.8462,-2.9602,0.8316,0.9003,0.000000,0.000000,0.00
0.4558,0.0671,0.8396,-2.9907,0.8240,0.8087,0.000000,0.000000,0.00
0.4524,0.0564,0.8408,-2.8458,0.6790,0.8621,0.000000,0.000000,0.00
0.4590,0.0664,0.8408,-2.9221,0.5875,0.6714,0.000000,0.000000,0.00
0.4500,0.0544,0.8525,-2.8839,0.5341,0.8469,0.000000,0.000000,0.00
0.4485,0.0574,0.8350,-2.8839,0.6485,0.6943,0.000000,0.000000,0.00
0.4539,0.0569,0.8398,-2.9144,0.7401,0.9308,0.000000,0.000000,0.00
0.4504,0.0593,0.8420,-2.9297,0.6485,0.7858,0.000000,0.000000,0.00
0.4561,0.0605,0.8442,-2.9144,0.7706,0.7401,0.000000,0.000000,0.00
0.4524,0.0596,0.8411,-2.9221,0.7782,0.9232,0.000000,0.000000,0.00
0.4543,0.0627,0.8325,-2.8381,0.9232,0.7629,0.000000,0.000000,0.00
0.4595,0.0635,0.8420,-2.7695,0.7629,0.7629,0.000000,0.000000,0.00
0.4492,0.0613,0.8413,-3.0060,0.5722,0.9766,0.000000,0.000000,0.00
0.4534,0.0596,0.8552,-3.0289,0.7248,0.8011,0.000000,0.000000,0.00
0.4514,0.0596,0.8452,-3.1204,0.7706,0.7858,0.000000,0.000000,0.00
0.4563,0.0635,0.8350,-3.0975,0.8926,0.8698,0.000000,0.000000,0.00
0.4534,0.0576,0.8455,-2.9373,0.8850,0.7782,0.000000,0.000000,0.00
0.4487,0.0615,0.8372,-2.9449,0.7248,0.8926,0.000000,0.000000,0.00
0.4531,0.0623,0.8489,-2.7390,0.7324,0.9232,0.000000,0.000000,0.00
0.4490,0.0605,0.8445,-3.0670,0.8011,0.8163,0.000000,0.000000,0.00
0.4558,0.0618,0.8418,-2.9449,0.5569,0.8469,0.000000,0.000000,0.00
0.4519,0.0605,0.8513,-3.0289,0.5341,0.7019,0.000000,0.000000,0.00
0.4573,0.0603,0.8411,-2.9144,0.6638,0.9308,0.000000,0.000000,0.00
0.4504,0.0559,0.8489,-2.9755,0.6027,0.8774,0.000000,0.000000,0.00
0.4507,0.0562,0.8433,-2.9144,0.5875,0.8240,0.000000,0.000000,0.00
0.4558,0.0537,0.8467,-2.8229,0.7477,0.9689,0.000000,0.000000,0.00
0.4548,0.0569,0.8486,-2.8992,0.7629,0.7477,0.000000,0.000000,0.00
0.4517,0.0579,0.8408,-2.9297,0.8011,0.8698,0.000000,0.000000,0.00
0.4514,0.0627,0.8340,-2.9526,0.7782,0.8469,0.000000,0.000000,0.00
0.4473,0.0596,0.8518,-2.8534,0.7401,0.8469,0.000000,0.000000,0.00
0.4561,0.0625,0.8481,-3.0060,0.6485,0.6332,0.000000,0.000000,0.00
0.4551,0.0620,0.8474,-2.9602,0.6866,0.7401,0.000000,0.000000,0.00
0.4519,0.0537,0.8501,-2.9221,0.6027,0.8774,0.000000,0.000000,0.00
0.4512,0.0576,0.8340,-2.8305,0.7172,0.7401,0.000000,0.000000,0.00
0.4546,0.0549,0.8394,-2.9984,0.7477,0.8011,0.000000,0.000000,0.00
0.4556,0.0569,0.8376,-3.1433,0.9155,0.8011,0.000000,0.000000,0.00
0.4541,0.0613,0.8433,-2.8381,0.8545,0.9155,0.000000,0.000000,0.00
0.4517,0.0593,0.8398,-2.7847,0.6485,0.7401,0.000000,0.000000,0.00
0.4568,0.0623,0.8425,-2.9526,0.8240,0.8850,0.000000,0.000000,0.00
0.4548,0.0605,0.8396,-2.9297,0.6638,0.9232,0.000000,0.000000,0.00
0.4539,0.0586,0.8367,-2.9907,0.8011,0.6409,0.000000,0.000000,0.00
0.4575,0.0588,0.8457,-2.8229,0.7935,0.8621,0.000000,0.000000,0.00
0.4512,0.0581,0.8430,-2.9831,0.6943,0.8087,0.000000,0.000000,0.00
0.4517,0.0632,0.8440,-2.8992,0.9460,0.8163,0.000000,0.000000,0.00
0.4451,0.0627,0.8328,-2.7695,0.8163,0.8774,0.000000,0.000000,0.00
0.4504,0.0586,0.8394,-2.9831,0.9079,0.6332,0.000000,0.000000,0.00
0.4568,0.0586,0.8428,-2.8687,0.6485,0.7858,0.000000,0.000000,0.00
0.4517,0.0557,0.8479,-2.8000,0.6256,0.7782,0.000000,0.000000,0.00
0.4495,0.0620,0.8413,-2.8305,0.7324,0.8011,0.000000,0.000000,0.00
0.4543,0.0613,0.8418,-2.9907,0.6485,0.9308,0.000000,0.000000,0.00
0.4492,0.0591,0.8416,-2.7771,0.9766,0.7248,0.000000,0.000000,0.00
0.4463,0.0537,0.8391,-3.0060,0.9308,0.9232,0.000000,0.000000,0.00
0.4561,0.0635,0.8396,-2.9678,0.7706,0.8926,0.000000,0.000000,0.00
0.4526,0.0664,0.8354,-2.9068,0.8011,0.8392,0.000000,0.000000,0.00
0.4529,0.0671,0.8430,-3.0060,0.6561,0.8087,0.000000,0.000000,0.00
0.4487,0.0637,0.8398,-2.8992,0.7553,0.6790,0.000000,0.000000,0.00
0.4524,0.0588,0.8403,-3.0136,0.8850,0.6714,0.000000,0.000000,0.00
0.4546,0.0623,0.8401,-2.9068,0.6866,0.8698,0.000000,0.000000,0.00
0.4551,0.0640,0.8416,-2.9144,0.5798,0.8240,0.000000,0.000000,0.00
0.4561,0.0601,0.8347,-2.8076,0.7095,0.9613,0.000000,0.000000,0.00
0.4531,0.0593,0.8416,-2.8763,0.8469,0.8087,0.000000,0.000000,0.00
0.4468,0.0581,0.8374,-2.8229,0.6180,0.7095,0.000000,0.000000,0.00
0.4492,0.0649,0.8440,-3.1204,0.6638,0.9003,0.000000,0.000000,0.00
0.4543,0.0615,0.8345,-2.9297,0.7553,0.8011,0.000000,0.000000,0.00
0.4531,0.0598,0.8438,-2.9449,0.7019,1.0376,0.000000,0.000000,0.00
0.4512,0.0608,0.8342,-2.9755,0.8240,0.9766,0.000000,0.000000,0.00
0.4575,0.0598,0.8430,-3.0212,0.6485,0.8087,0.000000,0.000000,0.00
0.4512,0.0562,0.8418,-3.0975,0.7782,0.8545,0.000000,0.000000,0.00
0.4492,0.0620,0.8376,-2.8992,0.7629,0.7019,0.000000,0.000000,0.00
0.4509,0.0618,0.8491,-2.9526,0.8011,0.6866,0.000000,0.000000,0.00
0.4575,0.0593,0.8342,-2.9068,0.6561,0.9003,0.000000,0.000000,0.00
0.4531,0.0657,0.8389,-3.0975,0.5798,0.7477,0.000000,0.000000,0.00
0.4551,0.0618,0.8398,-2.7847,0.7477,0.9308,0.000000,0.000000,0.00
0.4514,0.0579,0.8418,-3.0365,0.6104,0.8240,0.000000,0.000000,0.00
0.4548,0.0605,0.8396,-2.9068,0.6638,0.7935,0.000000,0.000000,0.00
0.4543,0.0596,0.8320,-3.0441,0.8087,0.8163,0.000000,0.000000,0.00
0.4502,0.0601,0.8413,-2.9602,0.5875,0.6866,0.000000,0.000000,0.00
0.4531,0.0642,0.8423,-2.8305,0.6561,0.7248,0.000000,0.000000,0.00
0.6382,0.2498,0.6990,-10.2463,3.1128,10.7117,0.000000,0.000000,0.00
0.5510,0.1375,0.9343,96.1151,-22.3007,72.6700,0.000000,0.000000,0.00
0.0100,0.6726,0.3313,-83.0002,111.7096,248.0240,0.000000,0.000000,0.00
0.1953,-0.7280,0.7573,20.7520,8.7433,-16.7618,0.000000,0.000000,0.00
-0.0137,0.2712,0.8611,17.9977,6.5765,-231.4224,0.000000,0.000000,0.00
-0.0505,-0.0420,0.8364,-2.1133,9.2010,1.3657,0.000000,0.000000,0.00
0.0825,-0.1477,0.9583,-13.4277,-5.7678,74.0967,0.000000,0.000000,0.00
0.0784,-0.1289,0.9126,-2.2278,-4.5929,92.6895,0.000000,0.000000,0.00
-0.0208,-0.1208,0.9043,10.3836,2.4872,-29.4724,0.000000,0.000000,0.00
-0.0776,0.1208,0.9109,4.7226,0.3967,-42.6788,0.000000,0.000000,0.00
0.1868,0.0430,0.9102,-10.4446,-2.9449,29.0070,0.000000,0.000000,0.00
0.0322,-0.0796,0.9421,4.2953,-7.2327,27.2293,0.000000,0.000000,0.00
0.4233,-0.3660,1.1821,-15.0681,-6.0577,118.3319,0.000000,0.000000,0.00
-0.0610,0.0959,0.7798,16.0904,5.1422,75.6149,0.000000,0.000000,0.00
0.0291,0.1008,0.7876,15.1138,-12.0468,-36.1099,0.000000,0.000000,0.00
0.2043,-0.0452,1.6663,-15.4114,26.6266,80.1620,0.000000,0.000000,0.00
-0.0352,-0.0703,0.9314,-11.3602,-19.0964,16.9144,0.000000,0.000000,0.00
-0.0005,0.0322,0.8674,14.0457,-0.0839,3.6621,0.000000,0.000000,0.00
-0.0347,0.0696,0.9883,0.7019,0.7248,2.8076,0.000000,0.000000,0.00
-0.0239,0.0667,0.9312,-5.9738,2.6855,8.1635,0.000000,0.000000,0.00
-0.0388,0.0586,0.9346,-2.8534,1.3962,-14.5187,0.000000,0.000000,0.00
-0.0042,-0.0103,0.8892,-0.7629,-4.1122,-21.8811,0.000000,0.000000,0.00
0.0723,0.1123,0.9463,1.0300,-1.5717,-33.8211,0.000000,0.000000,0.00
0.0503,0.1013,0.9353,-1.9913,0.1678,-1.8921,0.000000,0.000000,0.00
-0.0564,-0.0952,0.9141,-8.1940,4.2114,32.8827,0.000000,0.000000,0.00
-0.0134,0.0046,0.9265,-1.6327,1.9913,-6.5384,0.000000,0.000000,0.00
-0.0264,-0.0100,0.9224,-4.4327,-5.7526,-17.3721,0.000000,0.000000,0.00
0.0942,0.0972,0.9373,0.1297,-0.4120,-29.6936,0.000000,0.000000,0.00
0.0471,0.0493,0.9082,0.6638,-5.6610,-17.2806,0.000000,0.000000,0.00
-0.1182,0.1492,0.8706,-9.4299,-4.7607,-63.9343,0.000000,0.000000,0.00
-0.1067,0.3008,0.7808,26.8021,-37.3917,-161.8576,0.000000,0.000000,0.00
0.0444,-0.1011,0.9265,0.1678,-15.2512,-38.5208,0.000000,0.000000,0.00
0.0432,0.1155,0.9021,2.1667,4.1199,8.6975,0.000000,0.000000,0.00
-0.0083,-0.0183,0.9246,-3.3035,-1.6708,-20.7138,0.000000,0.000000,0.00
0.0532,0.1475,0.9106,-5.9357,6.6681,10.1547,0.000000,0.000000,0.00
0.0317,0.1021,0.9180,10.5743,-5.6305,3.1815,0.000000,0.000000,0.00
0.0247,0.0515,0.9148,-6.0577,0.2747,20.9503,0.000000,0.000000,0.00
0.0364,0.0896,0.8958,1.6174,-2.9526,-6.5689,0.000000,0.000000,0.00
0.0410,0.1638,0.8616,-2.3727,-4.0970,-21.7133,0.000000,0.000000,0.00
0.0415,0.0042,0.9705,-5.9891,14.2136,45.6467,0.000000,0.000000,0.00
-0.0571,0.0476,0.9216,-0.4654,0.0534,-4.2419,0.000000,0.000000,0.00
-0.0366,0.0808,0.9417,-1.6479,0.4578,4.4327,0.000000,0.000000,0.00
-0.0027,0.0356,0.9844,-11.5585,-2.7847,8.1329,0.000000,0.000000,0.00
-0.0437,0.2678,0.8877,25.7111,-26.6495,-73.4024,0.000000,0.000000,0.00
-0.0115,0.1309,0.8718,-2.6093,2.5864,-5.2490,0.000000,0.000000,0.00
0.0022,0.1477,0.9124,-3.7842,1.3123,4.5624,0.000000,0.000000,0.00
-0.0017,0.1292,0.9180,-3.0594,0.9537,-0.6256,0.000000,0.000000,0.00
-0.0251,0.1333,0.9229,-3.2196,1.2131,1.0834,0.000000,0.000000,0.00
-0.0098,0.1284,0.9231,-2.5558,-0.0687,1.2283,0.000000,0.000000,0.00
0.0061,0.1382,0.9204,-2.7008,0.6714,1.7242,0.000000,0.000000,0.00
0.0332,0.2100,0.8848,-10.0861,-4.5853,-13.2675,0.000000,0.000000,0.00
0.0317,0.0947,0.9373,8.0185,1.7929,2.7924,0.000000,0.000000,0.00
0.0598,0.1589,0.9170,-2.7771,2.6932,2.2125,0.000000,0.000000,0.00
0.0593,0.1621,0.9187,-3.0136,1.1902,0.6180,0.000000,0.000000,0.00
0.0022,0.1467,0.9229,-3.8071,0.9613,-2.5482,0.000000,0.000000,0.00
0.0391,0.1318,0.9221,-2.5482,0.6027,1.8463,0.000000,0.000000,0.00
0.0442,0.1370,0.9204,-2.9755,0.7401,0.7095,0.000000,0.000000,0.00
0.0334,0.1355,0.8823,-2.9907,1.6098,-0.3586,0.000000,0.000000,0.00
0.0295,0.1304,0.9050,-3.2349,0.3891,1.8387,0.000000,0.000000,0.00
0.0225,0.1375,0.9109,-2.8458,0.9766,-0.7553,0.000000,0.000000,0.00
0.0312,0.1370,0.9238,-3.1815,0.1831,1.5869,0.000000,0.000000,0.00
0.0220,0.1196,0.9309,-3.3035,1.1292,0.9842,0.000000,0.000000,0.00
0.0334,0.1394,0.9226,-2.8381,0.5951,2.3270,0.000000,0.000000,0.00
0.0359,0.1404,0.9102,-3.1128,1.3962,0.6866,0.000000,0.000000,0.00
0.0247,0.1279,0.9163,-2.3117,0.7172,-0.0916,0.000000,0.000000,0.00
0.0200,0.1311,0.9180,-3.3798,0.4959,-0.2441,0.000000,0.000000,0.00
0.0256,0.1357,0.9309,-2.7847,0.7095,1.4114,0.000000,0.000000,0.00
0.0088,0.1270,0.9207,-2.9449,1.1215,-2.0523,0.000000,0.000000,0.00
0.0195,0.1365,0.9309,-2.0828,-0.1068,1.0376,0.000000,0.000000,0.00
0.0205,0.1414,0.9260,-2.5253,-0.4272,-2.4796,0.000000,0.000000,0.00
0.0466,0.1577,0.9309,-0.9842,-0.4578,-20.8588,0.000000,0.000000,0.00
0.0164,0.1694,0.9148,-4.0512,1.4343,3.3951,0.000000,0.000000,0.00
0.0276,0.1584,0.8999,-3.2654,0.9079,12.7029,0.000000,0.000000,0.00
0.0205,0.1497,0.9124,-3.3340,1.7319,4.9133,0.000000,0.000000,0.00
0.0112,0.1567,0.9827,-3.2120,0.5264,0.4883,0.000000,0.000000,0.00
0.0264,0.1567,0.9177,-1.9302,0.0458,0.1602,0.000000,0.000000,0.00
0.0208,0.1624,0.9238,-3.4027,1.2436,-0.1678,0.000000,0.000000,0.00
0.0190,0.1572,0.9170,-2.4414,0.5188,0.8774,0.000000,0.000000,0.00
0.0393,0.1636,0.9172,-3.0746,-1.2131,-2.8687,0.000000,0.000000,0.00
0.0190,0.1511,0.9336,-5.4169,3.0365,2.4261,0.000000,0.000000,0.00
0.0491,0.1877,0.9475,0.2289,-15.1901,-25.6805,0.000000,0.000000,0.00
0.0173,-0.0232,0.9622,-8.4381,12.6495,52.6505,0.000000,0.000000,0.00
0.0183,0.2622,0.8757,-3.1204,9.1400,115.1733,0.000000,0.000000,0.00
0.1543,0.1282,1.0142,-12.7640,14.2899,85.3424,0.000000,0.000000,0.00
-0.0535,0.1372,0.9155,0.0000,16.9678,69.7174,0.000000,0.000000,0.00
0.1072,0.1675,0.8811,0.7019,-8.8654,-50.8652,0.000000,0.000000,0.00
0.1843,0.1321,0.9197,-0.5341,0.4501,-2.2736,0.000000,0.000000,0.00
0.0879,0.0259,0.9526,-6.8283,3.1662,23.5901,0.000000,0.000000,0.00
0.0527,0.0015,0.9631,-1.2970,1.9608,55.2979,0.000000,0.000000,0.00
0.0105,-0.0962,0.8687,-7.7896,-5.5466,32.1350,0.000000,0.000000,0.00
0.0420,0.1174,0.8950,10.9253,-3.7384,25.9705,0.000000,0.000000,0.00
-0.2312,0.0852,1.0806,8.9417,8.8730,-4.8676,0.000000,0.000000,0.00
-0.2007,0.0557,0.8552,20.7443,-3.7079,16.3803,0.000000,0.000000,0.00
0.0156,0.0342,0.5354,17.3264,-2.9907,-26.9699,0.000000,0.000000,0.00
0.0242,0.0349,0.4282,14.6103,-5.3024,-27.2369,0.000000,0.000000,0.00
-0.0278,-0.0381,0.4141,-2.7084,20.5383,-3.8605,0.000000,0.000000,0.00
-0.2537,-0.0281,0.6023,-4.1428,4.0359,11.1084,0.000000,0.000000,0.00
0.1272,0.1641,0.8330,-18.1961,35.3012,67.9245,0.000000,0.000000,0.00
0.5486,0.2153,1.2356,-24.8337,49.5605,133.2397,0.000000,0.000000,0.00
0.9614,0.1113,1.1675,-18.8141,-38.8565,162.5519,0.000000,0.000000,0.00
0.9001,0.0203,1.5610,-53.7796,-19.7983,230.1254,0.000000,0.000000,0.00
0.1890,0.0552,1.1436,-43.8538,37.0865,88.3560,0.000000,0.000000,0.00
0.6262,0.0356,1.4016,-30.6854,-8.9340,155.5939,0.000000,0.000000,0.00
-0.2463,-0.0747,0.7612,-16.8152,-11.8103,18.7683,0.000000,0.000000,0.00
-0.1597,0.2104,0.9314,-42.8925,-6.1798,85.5331,0.000000,0.000000,0.00
-0.0955,0.3418,1.0332,-3.3569,-26.2070,-41.9083,0.000000,0.000000,0.00
-0.2737,0.2205,0.9026,9.2010,-25.5280,-15.3122,0.000000,0.000000,0.00
-0.0906,0.3088,0.6497,-17.2958,-10.3531,6.3095,0.000000,0.000000,0.00
-0.0149,0.2454,0.5054,4.6844,-27.3819,9.1019,0.000000,0.000000,0.00
0.0767,0.0427,0.5713,11.4059,-35.8582,-30.4565,0.000000,0.000000,0.00
-0.1157,0.2305,0.5022,4.0741,-18.2877,-53.3676,0.000000,0.000000,0.00
-0.4377,0.2729,0.9775,19.4092,-44.0292,-74.8444,0.000000,0.000000,0.00
-0.2388,0.2361,0.7742,-14.2441,-30.0140,-32.7911,0.000000,0.000000,0.00
0.0417,0.0662,1.1167,-35.2173,-33.9203,-1.9150,0.000000,0.000000,0.00
0.1824,0.2136,1.4358,-29.4189,-19.4550,45.6238,0.000000,0.000000,0.00
-0.1582,0.1460,1.6499,-25.5280,-42.5644,36.8652,0.000000,0.000000,0.00
-0.3191,0.2886,0.9705,27.1912,21.2631,19.7906,0.000000,0.000000,0.00
-0.1897,0.1824,0.7520,14.0533,36.9339,22.1710,0.000000,0.000000,0.00
-0.3506,-0.0110,0.7991,-8.1635,8.3694,53.4363,0.000000,0.000000,0.00
-0.3455,-0.0486,0.7344,-8.6365,5.0278,35.4843,0.000000,0.000000,0.00
0.0190,0.2109,0.9751,-25.4288,7.5302,45.3873,0.000000,0.000000,0.00
-0.0486,0.0125,0.9414,-8.5373,-17.3416,5.9967,0.000000,0.000000,0.00
0.1265,-0.0269,0.9241,-4.5547,0.5188,19.5160,0.000000,0.000000,0.00
-0.1174,0.1836,0.8149,27.9999,15.9149,27.6642,0.000000,0.000000,0.00
-0.1736,0.2063,0.9551,9.8877,1.1673,-46.5546,0.000000,0.000000,0.00
-0.1272,0.1240,0.8892,-11.9476,11.5280,31.3110,0.000000,0.000000,0.00
0.1365,-0.1404,0.9006,-33.8135,-7.8201,39.2380,0.000000,0.000000,0.00
0.1240,-0.1917,0.8640,16.9525,5.4474,-13.3209,0.000000,0.000000,0.00
-0.7087,-0.2546,0.2485,56.8542,108.8791,-73.8220,0.000000,0.000000,0.00
-0.3953,0.2651,0.9922,46.8750,-89.4775,-97.8546,0.000000,0.000000,0.00
-0.1248,0.0500,0.9155,0.8087,10.6583,-21.3394,0.000000,0.000000,0.00
-0.0610,-0.0515,0.8516,-21.6675,-0.6943,-5.7373,0.000000,0.000000,0.00
0.4556,0.0408,0.2000,-170.1584,-27.8015,-140.0528,0.000000,0.000000,0.00
0.4812,-0.2844,0.7859,-3.0136,1.1902,0.7858,0.000000,0.000000,0.00
0.4895,-0.2959,0.7827,-3.2959,0.5112,0.6714,0.000000,0.000000,0.00
0.5012,-0.2937,0.7703,-2.8305,2.4109,0.2213,0.000000,0.000000,0.00
0.5132,-0.2947,0.7729,-3.4332,1.1673,0.9384,0.000000,0.000000,0.00
0.5200,-0.3262,0.7637,-2.0981,2.1286,1.1749,0.000000,0.000000,0.00
0.3879,-0.3010,0.7117,41.4047,33.4091,-35.6979,0.000000,0.000000,0.00
0.5039,-0.1165,0.8030,-2.0828,2.7390,1.0223,0.000000,0.000000,0.00
0.5020,-0.1321,0.8181,-2.8534,1.3504,0.7095,0.000000,0.000000,0.00
0.5295,-0.1226,0.7944,-2.9449,2.7542,0.8087,0.000000,0.000000,0.00
0.5105,-0.1147,0.7874,-3.5095,-1.4954,1.2054,0.000000,0.000000,0.00
0.7546,-0.1106,0.7375,-4.6616,18.2419,8.3542,0.000000,0.000000,0.00
0.4849,-0.1353,0.8154,0.9003,16.7542,5.0430,0.000000,0.000000,0.00
0.4768,-0.1682,0.7981,-3.7689,3.6621,1.0147,0.000000,0.000000,0.00
0.4790,-0.1572,0.8127,-4.9667,1.7624,1.1139,0.000000,0.000000,0.00
0.5303,-0.1921,0.8052,-1.3351,1.9150,1.1673,0.000000,0.000000,0.00
0.4812,-0.2109,0.8130,-1.7395,-1.9913,0.4578,0.000000,0.000000,0.00
0.4385,-0.1973,0.8840,-3.2806,-7.0953,1.0376,0.000000,0.000000,0.00
0.3674,-0.1602,0.8186,1.8692,-2.2430,0.6866,0.000000,0.000000,0.00
0.6445,0.0728,0.7686,-6.3782,6.4316,0.9842,0.000000,0.000000,0.00
0.2358,-0.0320,0.9028,-7.9498,39.7644,8.9569,0.000000,0.000000,0.00
0.5554,0.2263,0.7542,14.6561,11.5814,1.5488,0.000000,0.000000,0.00
ax, ay, az, gx, gy, gz, lat, lng, speed
0.3950,0.0266,0.8677,-3.1815,1.8158,1.2665,0.000000,0.000000,0.00
0.3916,0.0190,0.8625,-3.0136,0.4807,0.8926,0.000000,0.000000,0.00
0.5994,0.0481,0.6975,-2.2125,21.2631,8.2092,0.000000,0.000000,0.00
0.4009,0.0054,0.8628,-3.1815,0.7248,0.7706,0.000000,0.000000,0.00
0.4048,0.0125,0.8613,-2.8992,0.8926,0.6714,0.000000,0.000000,0.00
0.3984,0.0139,0.8713,-2.9449,1.1063,0.9918,0.000000,0.000000,0.00
0.4004,-0.0073,0.8604,-2.8687,0.6485,0.5035,0.000000,0.000000,0.00
0.4019,0.0056,0.8596,-2.8152,0.9766,0.5569,0.000000,0.000000,0.00
0.4031,0.0071,0.8635,-2.8839,0.6866,0.9460,0.000000,0.000000,0.00
0.4016,0.0105,0.8552,-2.8992,0.9537,0.7935,0.000000,0.000000,0.00
0.3997,-0.0054,0.8613,-2.9678,0.7172,1.0147,0.000000,0.000000,0.00
0.4031,0.0005,0.8503,-2.7695,0.7248,0.8850,0.000000,0.000000,0.00
0.3745,0.0027,0.8364,-2.1439,-0.2975,0.4196,0.000000,0.000000,0.00
0.4099,0.0110,0.8499,-2.6169,0.4501,0.7019,0.000000,0.000000,0.00
0.4072,0.0042,0.8701,-3.0518,0.9613,0.9003,0.000000,0.000000,0.00
0.4077,0.0042,0.8562,-3.0212,0.8240,0.8240,0.000000,0.000000,0.00
0.4111,0.0073,0.8621,-2.8992,0.8011,0.8163,0.000000,0.000000,0.00
0.4058,0.0083,0.8643,-2.8915,0.7935,0.7553,0.000000,0.000000,0.00
0.4058,0.0037,0.8572,-3.0289,1.0376,0.7019,0.000000,0.000000,0.00
0.4060,0.0112,0.8613,-2.8076,0.6714,0.8469,0.000000,0.000000,0.00
0.4097,0.0095,0.8616,-2.8076,0.7629,0.7553,0.000000,0.000000,0.00
0.4119,0.0022,0.8586,-3.0441,0.5493,0.9155,0.000000,0.000000,0.00
0.4116,0.0186,0.8677,-2.8000,0.8621,0.8926,0.000000,0.000000,0.00
0.4114,0.0090,0.8613,-2.9678,0.7248,0.9995,0.000000,0.000000,0.00
0.4082,0.0139,0.8660,-3.1509,0.6943,0.8240,0.000000,0.000000,0.00
0.4062,0.0061,0.8608,-3.0594,0.7477,0.8087,0.000000,0.000000,0.00
0.4082,0.0073,0.8613,-3.0518,0.7324,0.9155,0.000000,0.000000,0.00
0.4106,0.0046,0.8652,-2.9678,0.8163,0.9384,0.000000,0.000000,0.00
0.3975,0.0027,0.8572,-3.1052,0.7477,0.7172,0.000000,0.000000,0.00
0.4036,0.0378,0.8870,-1.0223,6.6681,-0.4578,0.000000,0.000000,0.00
0.4043,0.0259,0.8513,-2.5864,-0.9995,0.7172,0.000000,0.000000,0.00
0.3862,-0.0325,0.8784,-3.6469,1.4114,0.8774,0.000000,0.000000,0.00
0.4363,-0.0090,0.8767,-3.6240,0.2899,1.0529,0.000000,0.000000,0.00
0.4006,0.0137,0.8428,-2.2354,0.6104,0.6180,0.000000,0.000000,0.00
0.4041,0.0210,0.8806,-2.8610,1.3657,1.1444,0.000000,0.000000,0.00
0.3699,0.0085,0.8889,-3.0136,2.2202,0.8011,0.000000,0.000000,0.00
0.3979,0.0171,0.8879,-3.6850,0.9384,1.1978,0.000000,0.000000,0.00
0.4321,0.0105,0.8684,-2.8534,0.1678,0.9003,0.000000,0.000000,0.00
0.3906,0.0146,0.8528,-2.8610,0.9537,0.3204,0.000000,0.000000,0.00
0.3867,-0.0054,0.8401,-2.6474,0.6180,0.5722,0.000000,0.000000,0.00
0.3960,0.0027,0.8506,-2.1057,1.4114,0.6104,0.000000,0.000000,0.00
0.4207,-0.0093,0.8860,-3.6774,0.1526,1.1368,0.000000,0.000000,0.00
0.3955,-0.0015,0.8091,-3.3035,-1.4877,1.1597,0.000000,0.000000,0.00
0.4426,-0.0183,0.8618,-2.9068,0.7172,0.1678,0.000000,0.000000,0.00
0.4202,-0.0127,0.8772,-4.4785,-0.9918,0.1984,0.000000,0.000000,0.00
0.4233,-0.0208,0.9001,-2.8992,0.5951,2.0676,0.000000,0.000000,0.00
0.4019,0.0159,0.8706,-1.8921,-0.1068,4.4708,0.000000,0.000000,0.00
0.3501,0.0276,0.8599,-1.1978,1.8692,3.0975,0.000000,0.000000,0.00
0.4277,-0.0120,0.8533,-2.5787,0.8850,0.1678,0.000000,0.000000,0.00
0.4280,-0.0046,0.8630,-2.7695,0.5569,0.2441,0.000000,0.000000,0.00
0.4404,0.0044,0.8623,-2.5330,-0.3510,1.4267,0.000000,0.000000,0.00
0.3826,0.0291,0.8208,-1.9913,0.5798,1.4267,0.000000,0.000000,0.00
0.3679,0.0210,0.8474,-2.6245,1.0300,0.0763,0.000000,0.000000,0.00
0.4050,0.0256,0.9009,-3.3493,1.6022,1.1063,0.000000,0.000000,0.00
0.4004,0.0085,0.8250,-2.3117,-1.1597,0.3967,0.000000,0.000000,0.00
0.3916,0.0105,0.8440,-1.8234,1.1978,2.1896,0.000000,0.000000,0.00
0.3909,-0.0005,0.8198,-0.9766,0.5646,3.4256,0.000000,0.000000,0.00
0.3657,0.0549,0.8972,-1.9531,2.2964,2.9144,0.000000,0.000000,0.00
0.3896,0.0093,0.8679,-2.6474,1.2741,2.1896,0.000000,0.000000,0.00
0.4209,0.0081,0.8889,-3.3340,0.3510,1.6556,0.000000,0.000000,0.00
0.3794,0.0112,0.8389,-1.7395,2.3422,1.5717,0.000000,0.000000,0.00
0.4019,0.0007,0.8601,-2.0447,-0.3586,3.5019,0.000000,0.000000,0.00
0.4087,-0.0339,0.8562,-1.4572,1.9836,3.2959,0.000000,0.000000,0.00
0.4224,-0.0046,0.8848,-2.4948,-0.2136,2.6779,0.000000,0.000000,0.00
0.4055,0.0059,0.8752,-3.2349,-0.0076,2.5101,0.000000,0.000000,0.00
0.4055,0.0081,0.8811,-1.9760,0.0916,3.9368,0.000000,0.000000,0.00
0.3762,-0.0122,0.8535,-0.0839,1.2512,5.5008,0.000000,0.000000,0.00
0.4089,-0.0024,0.8506,-0.2823,-0.4807,5.6381,0.000000,0.000000,0.00
0.3704,-0.0168,0.8623,-0.7019,3.3112,5.8975,0.000000,0.000000,0.00
0.4165,0.0059,0.8606,-1.1292,0.6027,5.4855,0.000000,0.000000,0.00
0.4102,-0.0107,0.8835,-1.3504,1.4725,4.7989,0.000000,0.000000,0.00
0.4316,-0.0122,0.8743,-1.9531,-1.5488,5.3635,0.000000,0.000000,0.00
0.3823,0.0305,0.8550,-1.2131,-0.6485,3.7689,0.000000,0.000000,0.00
0.4143,-0.0081,0.8240,-0.9155,0.8621,3.5553,0.000000,0.000000,0.00
0.4329,0.0244,0.8882,-2.8687,0.6332,0.9308,0.000000,0.000000,0.00
0.4158,0.0237,0.8708,-2.5101,0.5035,1.3962,0.000000,0.000000,0.00
0.3899,0.0037,0.8137,-1.9302,-0.0458,0.6485,0.000000,0.000000,0.00
0.4751,-0.0410,0.8391,-2.0447,0.5264,3.1052,0.000000,0.000000,0.00
0.3813,0.0186,0.8650,-1.5564,-0.1831,6.3553,0.000000,0.000000,0.00
0.4121,0.0005,0.8542,-0.1450,-0.0305,7.8812,0.000000,0.000000,0.00
0.4485,-0.0032,0.8794,0.1984,3.0899,10.7803,0.000000,0.000000,0.00
0.4980,-0.0642,0.7954,-0.2747,1.1673,7.8278,0.000000,0.000000,0.00
0.3784,0.0051,0.8982,-3.0289,0.7706,0.1221,0.000000,0.000000,0.00
0.3765,0.0132,0.8999,-5.8975,1.8463,-3.5248,0.000000,0.000000,0.00
0.3647,0.0190,0.8818,-4.6463,-0.7248,-3.7994,0.000000,0.000000,0.00
0.3252,0.0679,0.8459,-2.8610,-0.8621,-2.6398,0.000000,0.000000,0.00
0.3772,0.0149,0.8477,-3.2272,2.2888,-1.9989,0.000000,0.000000,0.00
0.4084,-0.0117,0.8811,-4.6310,2.6169,-3.2043,0.000000,0.000000,0.00
0.3684,-0.0256,0.8394,-5.4779,0.6638,-6.2027,0.000000,0.000000,0.00
0.4014,0.0178,0.8523,-4.2877,0.6943,-5.7220,0.000000,0.000000,0.00
0.3774,0.0093,0.8923,-4.1504,-0.1678,-4.7607,0.000000,0.000000,0.00
0.4192,-0.0261,0.8667,-4.2496,0.9308,-1.9836,0.000000,0.000000,0.00
0.3806,-0.0073,0.8513,-4.6768,0.3510,-2.3804,0.000000,0.000000,0.00
0.4106,0.0220,0.8606,-3.6316,1.0071,-1.9608,0.000000,0.000000,0.00
0.4082,0.0105,0.8862,-3.6469,0.6104,-1.1520,0.000000,0.000000,0.00
0.4172,-0.0159,0.8623,-4.7379,1.2512,-4.1885,0.000000,0.000000,0.00
0.4177,-0.0176,0.8840,-5.6763,2.2888,-6.4087,0.000000,0.000000,0.00
0.3745,-0.0176,0.8232,-6.6223,1.0910,-8.6441,0.000000,0.000000,0.00
0.3528,0.0125,0.8857,-6.5842,1.0605,-7.3700,0.000000,0.000000,0.00
0.3437,0.0737,0.8706,-2.5330,0.4196,-0.7019,0.000000,0.000000,0.00
0.3916,-0.0247,0.8384,-2.8000,0.3586,0.8011,0.000000,0.000000,0.00
0.3638,-0.0020,0.8516,-2.4414,1.2360,0.5722,0.000000,0.000000,0.00
0.3975,0.0100,0.8955,-4.2114,0.0076,-0.6943,0.000000,0.000000,0.00
0.3979,-0.0061,0.8533,-4.7531,-0.8926,-4.0283,0.000000,0.000000,0.00
0.4126,0.0005,0.8789,-5.0964,-0.3128,-3.0060,0.000000,0.000000,0.00
0.3208,0.0149,0.8398,-2.6779,3.4561,0.8163,0.000000,0.000000,0.00
0.4177,0.0083,0.8713,-2.6932,-0.0381,0.8926,0.000000,0.000000,0.00
0.4053,0.0112,0.9001,-3.1204,1.6174,1.0605,0.000000,0.000000,0.00
0.4268,-0.0146,0.8511,-2.9984,-0.1526,1.3123,0.000000,0.000000,0.00
0.3594,0.0103,0.8501,-2.4490,0.8011,0.4196,0.000000,0.000000,0.00
0.4180,-0.0037,0.8987,-3.0746,1.0910,0.7019,0.000000,0.000000,0.00
0.3711,-0.0063,0.8440,-2.7313,0.8926,0.8850,0.000000,0.000000,0.00
0.3809,-0.0073,0.8499,-2.4338,0.2136,0.3891,0.000000,0.000000,0.00
0.3892,-0.0083,0.8303,-2.9068,0.0992,0.6332,0.000000,0.000000,0.00
0.3728,-0.0005,0.8516,-2.9373,0.1526,0.8774,0.000000,0.000000,0.00
0.4211,-0.0037,0.9089,-3.3646,0.5722,0.9842,0.000000,0.000000,0.00
0.3679,-0.0100,0.8638,-2.7847,1.5030,0.5569,0.000000,0.000000,0.00
0.4036,0.0042,0.8870,-3.0441,0.7324,1.2894,0.000000,0.000000,0.00
0.3958,0.0088,0.8643,-2.9907,-0.9918,1.1063,0.000000,0.000000,0.00
0.4172,0.0063,0.8608,-3.0518,0.0839,0.9079,0.000000,0.000000,0.00
0.4143,-0.0137,0.8699,-3.7766,-0.1984,1.3123,0.000000,0.000000,0.00
0.3818,0.0000,0.8870,-2.9755,1.5564,0.8316,0.000000,0.000000,0.00
0.3999,-0.0173,0.8701,-2.8610,0.6332,1.1978,0.000000,0.000000,0.00
0.4043,-0.0139,0.8826,-3.6545,0.3357,1.2054,0.000000,0.000000,0.00
0.4072,-0.0093,0.8730,-4.4556,2.8992,1.0986,0.000000,0.000000,0.00
0.4048,-0.0417,0.8538,-3.1891,3.0670,0.9613,0.000000,0.000000,0.00
0.4109,0.0103,0.8354,-1.9836,-0.5035,0.1068,0.000000,0.000000,0.00
0.4055,-0.0100,0.8730,-3.1052,-0.8850,1.1597,0.000000,0.000000,0.00
0.3782,-0.0366,0.8564,-3.4180,1.9760,0.7782,0.000000,0.000000,0.00
0.3838,0.0173,0.8640,-1.8311,0.2594,0.7782,0.000000,0.000000,0.00
0.4045,-0.0286,0.8706,-3.8910,-0.2594,0.9842,0.000000,0.000000,0.00
0.4141,0.0049,0.8628,-2.2888,0.8774,0.7172,0.000000,0.000000,0.00
0.3801,-0.0537,0.8582,-3.7613,1.3962,0.8926,0.000000,0.000000,0.00
0.4238,0.0095,0.8696,-2.4338,-0.0763,0.7782,0.000000,0.000000,0.00
0.3857,-0.0181,0.8701,-2.6932,1.4648,0.7935,0.000000,0.000000,0.00
0.3870,0.0078,0.8535,-2.7542,0.9766,0.3586,0.000000,0.000000,0.00
0.4001,-0.0059,0.8542,-3.5324,0.1755,1.3351,0.000000,0.000000,0.00
0.3909,-0.0212,0.8777,-3.3722,0.7248,1.1292,0.000000,0.000000,0.00
0.3931,-0.0251,0.8564,-3.3188,0.9155,0.5264,0.000000,0.000000,0.00
0.3911,-0.0027,0.8601,-2.6169,1.3657,0.2899,0.000000,0.000000,0.00
0.3884,-0.0247,0.8645,-3.5782,0.9384,0.9689,0.000000,0.000000,0.00
0.4460,-0.0259,0.8481,-2.4796,2.3575,0.7324,0.000000,0.000000,0.00
0.3921,-0.0583,0.8020,-3.2578,1.6327,1.2970,0.000000,0.000000,0.00
0.4907,0.0095,0.9177,4.8752,10.5820,-1.8311,0.000000,0.000000,0.00
0.3611,0.0129,0.7263,-8.1787,4.9133,1.8768,0.000000,0.000000,0.00
0.3931,0.2053,0.8740,-2.0981,-5.7678,0.9918,0.000000,0.000000,0.00
0.2258,0.0076,0.6538,3.4637,-3.5172,-2.0065,0.000000,0.000000,0.00
0.2017,-0.0027,0.8442,-5.5008,-5.4169,0.5493,0.000000,0.000000,0.00
0.4746,0.0781,0.9702,-6.2943,5.6534,-4.9210,0.000000,0.000000,0.00
0.1248,0.3081,1.0508,-3.5934,15.3427,-11.7187,0.000000,0.000000,0.00
0.4253,0.1870,0.9490,5.6610,-1.5793,-7.0419,0.000000,0.000000,0.00
0.3667,-0.2056,0.6555,11.1237,20.7138,4.4403,0.000000,0.000000,0.00
0.4731,0.1516,0.9128,-0.2670,-0.8545,13.8855,0.000000,0.000000,0.00
0.4517,0.1023,0.9417,-1.0910,11.9247,16.3727,0.000000,0.000000,0.00
0.3853,-0.0493,0.8274,1.2665,-3.0670,12.7716,0.000000,0.000000,0.00
0.4617,-0.0217,0.7515,0.8774,0.9003,3.4790,0.000000,0.000000,0.00
0.3425,-0.0142,0.7800,-3.6469,5.7526,3.9062,0.000000,0.000000,0.00
0.4106,-0.0818,0.8540,-1.4954,-2.0218,3.0746,0.000000,0.000000,0.00
0.4153,-0.0608,0.8586,-3.7537,-1.7014,1.8311,0.000000,0.000000,0.00
0.4023,-0.1221,0.8569,-4.5547,4.5166,-2.8152,0.000000,0.000000,0.00
0.5576,-0.1543,1.2363,-2.5406,2.2736,-1.7471,0.000000,0.000000,0.00
0.3933,0.0254,0.8599,-3.7155,3.1204,-3.0365,0.000000,0.000000,0.00
0.4434,-0.0110,0.8506,-2.2125,2.1591,2.1744,0.000000,0.000000,0.00
0.5588,-0.0957,0.5330,2.4414,-3.3417,5.2338,0.000000,0.000000,0.00
0.2744,-0.0063,1.0078,-3.5553,-3.7003,3.1433,0.000000,0.000000,0.00
0.3748,0.0525,0.8125,-3.7079,-1.3123,-1.1292,0.000000,0.000000,0.00
0.3955,-0.0312,0.9585,-2.0752,-2.6245,-0.3662,0.000000,0.000000,0.00
0.5244,0.0105,0.9189,-6.3477,2.3422,2.1973,0.000000,0.000000,0.00
0.4680,-0.1155,0.8086,-2.7084,0.2975,-1.4420,0.000000,0.000000,0.00
0.3823,-0.1147,1.0022,-6.5689,12.0163,-0.2747,0.000000,0.000000,0.00
0.3464,-0.0532,0.8193,-3.5019,5.2643,0.7477,0.000000,0.000000,0.00
0.3013,0.0332,1.0217,-6.9809,4.3716,-1.1749,0.000000,0.000000,0.00
0.2898,-0.0859,0.8823,-3.7460,-5.1117,-1.5869,0.000000,0.000000,0.00
0.3496,0.0320,0.8850,-7.0114,9.9106,-5.4703,0.000000,0.000000,0.00
0.3411,0.0720,0.8479,-3.6545,-2.1210,-4.4250,0.000000,0.000000,0.00
0.4026,-0.1228,0.9329,-7.6904,2.9755,-3.4943,0.000000,0.000000,0.00
0.4390,-0.0862,0.8674,-6.2332,-1.8616,-6.9962,0.000000,0.000000,0.00
0.3665,-0.0532,0.8425,-7.8888,1.0376,-4.3640,0.000000,0.000000,0.00
0.4570,-0.0942,0.8091,-6.8817,1.4420,4.6463,0.000000,0.000000,0.00
0.4551,-0.1011,0.7932,-3.2883,-4.8065,-1.7548,0.000000,0.000000,0.00
0.4038,0.0132,0.9954,-4.7150,2.0752,1.0757,0.000000,0.000000,0.00
0.1479,0.0283,0.6230,2.1362,-3.7231,3.5934,0.000000,0.000000,0.00
0.5193,-0.0779,0.8689,-2.9297,-0.0305,10.8719,0.000000,0.000000,0.00
0.4146,-0.2419,0.8428,5.4321,-6.4774,6.7978,0.000000,0.000000,0.00
0.2710,0.0112,0.7480,-2.2049,10.6735,6.6147,0.000000,0.000000,0.00
0.2712,0.0874,0.8940,-14.1754,3.3188,7.9498,0.000000,0.000000,0.00
0.3540,-0.0330,0.9060,-1.1597,0.7477,5.7297,0.000000,0.000000,0.00
0.3464,-0.0330,0.8254,-0.6866,1.1215,1.5488,0.000000,0.000000,0.00
0.4368,-0.0979,0.8347,-2.8687,0.2899,0.9079,0.000000,0.000000,0.00
0.3516,-0.0808,0.8574,-3.6011,2.9984,-2.4185,0.000000,0.000000,0.00
0.3572,-0.0632,0.8687,-3.1891,0.8087,-0.3662,0.000000,0.000000,0.00
0.4138,-0.1008,0.8494,-5.0278,-0.3204,-2.3651,0.000000,0.000000,0.00
0.4460,-0.1443,0.8372,-6.6833,-4.0054,-5.3787,0.000000,0.000000,0.00
0.4780,-0.0876,0.8777,0.9995,-0.6561,5.5161,0.000000,0.000000,0.00
0.4412,-0.1277,0.9099,2.2812,-0.2365,17.5247,0.000000,0.000000,0.00
0.3613,-0.0496,0.8870,-3.5858,3.8605,-0.0305,0.000000,0.000000,0.00
0.3674,-0.3567,0.5779,6.2866,12.6801,-2.7924,0.000000,0.000000,0.00
0.4426,-0.0085,0.8999,-0.1678,1.2512,-0.9537,0.000000,0.000000,0.00
0.5081,-0.0596,0.7407,-2.3422,-3.4332,1.4191,0.000000,0.000000,0.00
0.3748,-0.0815,0.7593,-1.5335,1.3733,1.0223,0.000000,0.000000,0.00
0.3533,-0.0537,0.8799,-1.8311,3.6087,1.0910,0.000000,0.000000,0.00
0.3174,-0.1304,0.8643,-1.6403,2.0828,-2.5482,0.000000,0.000000,0.00
0.2563,-0.0491,0.7761,-4.0131,-1.4725,-5.0430,0.000000,0.000000,0.00
0.3030,-0.0134,0.7202,-2.2278,10.5209,-7.2708,0.000000,0.000000,0.00
0.5391,-0.1975,0.9478,-2.7313,-1.6937,-6.1035,0.000000,0.000000,0.00
0.4373,-0.2043,0.7883,-2.8305,-1.7014,-7.3090,0.000000,0.000000,0.00
0.4426,-0.1809,0.8308,-2.9831,1.2665,-6.9427,0.000000,0.000000,0.00
0.4231,-0.1348,1.1165,-6.0806,-3.0441,-0.7858,0.000000,0.000000,0.00
0.2485,-0.3062,0.9946,-4.8141,-1.8921,2.2202,0.000000,0.000000,0.00
0.2568,0.0396,0.8608,-1.1902,-0.1831,1.7776,0.000000,0.000000,0.00
0.4495,-0.0383,0.9321,-3.7231,5.1880,2.2812,0.000000,0.000000,0.00
0.4387,-0.1279,0.8010,-4.5853,-2.4109,-3.2730,0.000000,0.000000,0.00
0.4807,-0.1316,0.8655,-2.0218,2.0828,-3.6697,0.000000,0.000000,0.00
0.3577,0.0154,0.8091,-1.6022,6.3858,10.1852,0.000000,0.000000,0.00
0.4622,0.2163,0.9053,2.4338,0.6256,9.1629,0.000000,0.000000,0.00
0.3892,0.0005,0.9172,-0.3281,-1.7853,4.2496,0.000000,0.000000,0.00
0.2495,-0.1367,0.9497,-12.1765,5.2338,-3.4943,0.000000,0.000000,0.00
0.3335,-0.1362,0.7305,-1.7471,-0.0534,1.0910,0.000000,0.000000,0.00
0.5010,-0.0403,0.9302,1.5030,0.0839,10.6125,0.000000,0.000000,0.00
0.3130,0.0371,1.0195,1.1902,1.3885,6.9351,0.000000,0.000000,0.00
0.3018,-0.0320,0.8433,-3.4409,1.8082,-2.3270,0.000000,0.000000,0.00
0.2988,-0.1479,0.8862,-7.0419,9.5749,-7.9346,0.000000,0.000000,0.00
0.3040,-0.1074,0.9497,-7.4463,6.1722,-6.9046,0.000000,0.000000,0.00
0.4390,-0.1455,0.7654,-4.7302,-7.2021,2.2125,0.000000,0.000000,0.00
0.2695,-0.2366,0.6855,-0.6866,-1.2131,-1.4725,0.000000,0.000000,0.00
0.4543,-0.1323,0.8855,-7.3547,5.8975,-3.5172,0.000000,0.000000,0.00
-0.0132,-0.5464,0.9199,-0.5264,-22.4075,-2.5024,0.000000,0.000000,0.00
0.8643,0.0015,0.8008,9.5520,-10.8719,-7.4310,0.000000,0.000000,0.00
0.2007,0.2334,0.8145,-1.0605,3.0823,-0.6485,0.000000,0.000000,0.00
0.4961,0.0054,1.0359,-8.3847,0.3433,1.2436,0.000000,0.000000,0.00
0.2380,-0.0115,0.9160,1.5259,-7.3318,-1.2512,0.000000,0.000000,0.00
0.2881,0.0112,0.8203,3.6240,-0.7553,-2.2736,0.000000,0.000000,0.00
0.4746,0.0310,0.7439,-3.4943,-2.0523,4.7913,0.000000,0.000000,0.00
0.7190,0.2612,0.5098,4.8523,20.7901,-3.1586,0.000000,0.000000,0.00
0.3723,0.2439,0.9250,0.4501,-1.6708,2.8229,0.000000,0.000000,0.00
0.2292,-0.3562,0.7590,1.5030,2.5253,3.2806,0.000000,0.000000,0.00
0.3154,0.4153,0.9663,1.0071,0.8163,0.3433,0.000000,0.000000,0.00
-0.0701,0.1089,1.2837,5.0354,3.0289,-1.0300,0.000000,0.000000,0.00
0.5032,0.1240,0.9058,-1.4038,-0.1144,0.4425,0.000000,0.000000,0.00
0.3569,0.1970,1.3704,-3.3951,-11.2305,2.4338,0.000000,0.000000,0.00
0.3318,-0.1035,0.4595,17.0441,-0.5341,-3.5934,0.000000,0.000000,0.00
-0.0115,0.3940,1.2998,-6.5994,13.1226,4.2725,0.000000,0.000000,0.00
0.6238,-0.4878,0.8054,-6.1874,-9.7504,4.2648,0.000000,0.000000,0.00
0.0974,0.1926,1.1248,-3.8071,17.1585,-1.7776,0.000000,0.000000,0.00
-0.1802,-0.2234,0.9126,-7.8964,36.8881,-8.7585,0.000000,0.000000,0.00
-0.5027,0.0525,1.1274,-0.9766,19.3405,-3.3875,0.000000,0.000000,0.00
0.6511,-0.3042,0.2183,17.3721,3.4943,3.5629,0.000000,0.000000,0.00
0.1016,0.3145,0.9700,-2.6779,4.0207,1.6022,0.000000,0.000000,0.00
0.8499,0.1067,0.7542,1.8616,-1.4801,-1.4496,0.000000,0.000000,0.00
0.3293,-0.1738,0.7371,-11.0703,9.7351,-1.6632,0.000000,0.000000,0.00
0.3855,0.0205,0.7371,0.9079,21.1945,-2.3804,0.000000,0.000000,0.00
0.3057,0.1243,0.7722,-2.8000,0.3891,-0.8163,0.000000,0.000000,0.00
0.3020,-0.0610,0.7944,-1.7929,-1.2054,1.2512,0.000000,0.000000,0.00
0.3650,-0.0989,0.9746,-6.7444,1.0071,2.2507,0.000000,0.000000,0.00
0.3325,-0.0803,0.6589,2.8763,-0.5188,-1.5640,0.000000,0.000000,0.00
0.4651,-0.0186,0.9377,-7.3166,7.3318,-2.4338,0.000000,0.000000,0.00
0.4668,-0.1143,0.7793,-0.2365,-8.9798,4.1122,0.000000,0.000000,0.00
0.3391,0.0288,0.6562,-1.3199,0.5722,2.0142,0.000000,0.000000,0.00
0.3457,-0.0791,0.9939,-6.6757,3.5172,-0.3891,0.000000,0.000000,0.00
0.3064,0.0305,1.0269,-1.5259,2.9755,-0.4272,0.000000,0.000000,0.00
0.3743,-0.1055,0.8770,-4.0970,0.3738,1.9913,0.000000,0.000000,0.00
0.4324,0.0066,0.8752,0.3662,-1.4648,-1.1978,0.000000,0.000000,0.00
0.3801,-0.0149,0.8999,-0.6714,-2.3041,0.7706,0.000000,0.000000,0.00
0.4243,-0.0498,0.8457,-6.9580,0.4501,3.2578,0.000000,0.000000,0.00
0.6052,-0.1750,0.5847,-2.5330,-0.0610,-0.5188,0.000000,0.000000,0.00
0.3081,0.0137,0.8359,-5.9357,0.8850,-3.6621,0.000000,0.000000,0.00
0.4714,-0.0144,0.8943,0.8469,-8.7662,-3.8986,0.000000,0.000000,0.00
0.5142,-0.1885,0.6729,-2.6550,-5.5084,2.7161,0.000000,0.000000,0.00
0.8230,-0.2346,0.8804,1.0834,-9.3765,2.9526,0.000000,0.000000,0.00
0.1609,-0.3755,0.6604,5.2567,2.8076,-1.8005,0.000000,0.000000,0.00
0.2512,-0.1528,0.8899,-5.6763,-6.8283,5.5389,0.000000,0.000000,0.00
0.3545,0.0955,1.1345,-0.1755,5.6000,1.9302,0.000000,0.000000,0.00
0.4836,-0.0251,0.7908,-1.5259,-1.9836,6.9809,0.000000,0.000000,0.00
0.6252,-0.1182,0.8640,-4.8752,2.5101,5.4321,0.000000,0.000000,0.00
0.4597,0.0186,0.8398,-0.1831,-1.8005,1.9302,0.000000,0.000000,0.00
0.4304,0.0146,0.8589,-2.1973,0.7248,2.7618,0.000000,0.000000,0.00
0.5227,0.0244,0.7883,1.3962,-6.4316,8.2397,0.000000,0.000000,0.00
0.2981,0.1309,0.9275,7.3090,5.6839,10.3302,0.000000,0.000000,0.00
0.3740,0.0972,0.8433,0.1678,1.4954,11.3602,0.000000,0.000000,0.00
0.2976,0.0325,0.8567,8.1024,1.0986,5.7907,0.000000,0.000000,0.00
0.6831,0.0659,1.9999,5.3406,68.7408,-9.8572,0.000000,0.000000,0.00
0.8691,-0.0876,0.4338,-0.9308,13.2751,-0.1068,0.000000,0.000000,0.00
0.3257,-0.1848,0.7871,-1.6098,-8.7051,-1.3351,0.000000,0.000000,0.00
0.5115,-0.0505,0.8643,-0.0458,-9.3460,1.5488,0.000000,0.000000,0.00
0.7268,-0.0930,0.3501,1.3046,1.7395,6.4163,0.000000,0.000000,0.00
0.5317,-0.0715,0.8809,-2.7924,9.0485,0.9918,0.000000,0.000000,0.00
0.4219,0.2607,0.9775,-9.6359,18.0054,-1.7624,0.000000,0.000000,0.00
0.2852,-0.0325,0.7446,-1.3733,16.8152,-1.1673,0.000000,0.000000,0.00
0.5132,-0.0945,0.7441,0.5112,-8.7280,-1.0681,0.000000,0.000000,0.00
0.5225,0.0422,0.9958,-5.2643,6.1111,-3.5477,0.000000,0.000000,0.00
0.3347,0.0466,0.8052,-8.5220,0.6409,1.2207,0.000000,0.000000,0.00
0.4573,-0.0823,1.0247,-5.5618,0.9537,-3.6545,0.000000,0.000000,0.00
0.2317,0.0278,0.6555,4.7913,-1.6403,-6.3553,0.000000,0.000000,0.00
0.2944,0.0525,0.9626,-2.6016,2.3499,0.9003,0.000000,0.000000,0.00
0.1816,0.0840,0.9744,-1.6479,5.7678,0.9613,0.000000,0.000000,0.00
0.3999,-0.0312,0.8113,-1.7242,-0.7019,0.5569,0.000000,0.000000,0.00
0.4932,-0.0471,0.8289,-1.7853,0.2823,-1.0071,0.000000,0.000000,0.00
0.6562,-0.1484,0.7654,-2.8458,-5.2643,-3.4103,0.000000,0.000000,0.00
0.4954,-0.0588,0.7583,-2.6245,3.1357,6.7215,0.000000,0.000000,0.00
0.4685,0.0669,0.7673,-3.7079,-5.3787,-4.6768,0.000000,0.000000,0.00
0.4751,-0.2610,0.8928,-11.0245,3.4790,-12.2986,0.000000,0.000000,0.00
0.3809,-0.2654,0.7334,-5.8823,-8.7128,-11.4822,0.000000,0.000000,0.00
0.6167,-0.3794,0.8391,-2.7924,5.2795,-7.0190,0.000000,0.000000,0.00
0.3140,-0.0232,0.9258,-3.8147,7.4387,-3.6316,0.000000,0.000000,0.00
0.2888,-0.0100,0.7805,-3.5400,-0.4501,0.0992,0.000000,0.000000,0.00
0.2239,-0.0110,0.8999,-4.6616,4.5090,1.7929,0.000000,0.000000,0.00
0.3264,-0.0056,0.7800,0.1450,-3.5172,7.0572,0.000000,0.000000,0.00
-0.0981,0.1602,1.1758,-2.0447,-20.6680,2.4109,0.000000,0.000000,0.00
0.3782,-0.0627,0.8704,-4.7989,-0.4196,-2.4185,0.000000,0.000000,0.00
0.3564,-0.0754,0.8818,-5.5237,2.2125,-10.3989,0.000000,0.000000,0.00
0.4387,-0.2529,0.8567,-13.4506,4.7531,-19.6152,0.000000,0.000000,0.00
0.4104,-0.2134,0.8252,-9.6130,0.7248,-18.6996,0.000000,0.000000,0.00
0.3679,-0.1641,0.8564,-5.4169,1.1673,-4.4403,0.000000,0.000000,0.00
0.4487,-0.1670,0.8494,-4.3793,2.0523,-1.5945,0.000000,0.000000,0.00
0.4277,0.0339,0.7559,-3.2654,3.7994,-4.1733,0.000000,0.000000,0.00
0.5657,-0.1538,0.8723,-4.3945,1.1292,-3.7613,0.000000,0.000000,0.00
0.2139,-0.2065,0.6177,-5.0735,11.0474,-4.5547,0.000000,0.000000,0.00
0.3269,-0.0493,0.9265,-3.3569,11.3907,2.0447,0.000000,0.000000,0.00
0.2844,0.1396,0.7983,1.9379,2.3499,2.2507,0.000000,0.000000,0.00
0.3037,0.0039,0.8774,-4.5471,-3.0441,-0.0763,0.000000,0.000000,0.00
0.4614,0.0713,0.7991,-0.3815,-9.2926,-1.9455,0.000000,0.000000,0.00
0.3569,-0.0566,0.8542,-5.6686,0.2594,-0.1450,0.000000,0.000000,0.00
0.3845,-0.0520,0.8396,-3.8681,1.9455,-0.7706,0.000000,0.000000,0.00
0.4285,-0.0684,0.8247,-3.1052,-0.3738,-1.3733,0.000000,0.000000,0.00
0.3767,-0.0376,0.9182,-2.2964,-0.3052,0.3738,0.000000,0.000000,0.00
0.4617,-0.1274,0.8218,-3.1433,1.6403,-0.9155,0.000000,0.000000,0.00
0.4985,-0.0911,0.7322,-8.1406,-2.0523,-4.4708,0.000000,0.000000,0.00
0.4575,-0.1460,0.8645,-8.1558,0.8011,-13.4201,0.000000,0.000000,0.00
0.4866,0.0122,0.8628,1.0986,-0.6256,6.9351,0.000000,0.000000,0.00
0.3994,0.0195,0.8074,-0.3586,0.9689,10.1089,0.000000,0.000000,0.00
0.2993,0.0220,0.8826,-2.5635,-1.2283,2.0294,0.000000,0.000000,0.00
0.4126,-0.0396,0.8391,-2.2812,-1.4191,2.0981,0.000000,0.000000,0.00
0.4055,-0.0847,0.7058,0.5646,-3.5324,-0.6180,0.000000,0.000000,0.00
0.5256,-0.1130,0.8584,-4.4556,-1.9913,3.4485,0.000000,0.000000,0.00
0.4314,-0.1687,0.7520,-6.8283,-1.3657,3.0899,0.000000,0.000000,0.00
0.4570,-0.0950,0.8704,-2.3193,4.5319,2.5330,0.000000,0.000000,0.00
0.4705,-0.0171,0.8857,-3.0746,2.5711,1.8692,0.000000,0.000000,0.00
0.4609,-0.0115,1.0127,-5.9814,0.0687,1.3885,0.000000,0.000000,0.00
0.5366,-0.0830,0.7771,0.5035,-0.1526,5.1575,0.000000,0.000000,0.00
0.5349,0.0234,0.8066,4.9362,8.8348,10.5515,0.000000,0.000000,0.00
0.4612,-0.0698,0.8818,-1.3885,-4.2343,-0.1602,0.000000,0.000000,0.00
0.3765,-0.2219,0.9888,-10.3836,0.1907,-4.9973,0.000000,0.000000,0.00
0.3237,-0.2495,0.6160,-2.3117,-3.4332,-11.1313,0.000000,0.000000,0.00
0.2695,-0.0259,0.9919,-10.8261,7.7744,-8.7357,0.000000,0.000000,0.00
0.3262,0.0620,0.8101,-3.2806,3.9749,-1.3885,0.000000,0.000000,0.00
0.3267,0.1655,0.9316,-3.3951,4.9362,4.4632,0.000000,0.000000,0.00
0.3235,0.0325,0.9426,1.2589,-1.9302,2.4567,0.000000,0.000000,0.00
0.4336,-0.1111,0.7039,-3.9749,-9.7733,0.7858,0.000000,0.000000,0.00
0.4719,-0.0935,0.9109,-6.7368,0.9155,3.4790,0.000000,0.000000,0.00
0.4392,-0.0112,0.8254,0.4730,-6.1722,2.3575,0.000000,0.000000,0.00
0.5918,-0.0925,0.8469,0.2975,-3.4027,10.7269,0.000000,0.000000,0.00
0.5046,-0.0107,0.9229,3.3188,3.7384,11.0855,0.000000,0.000000,0.00
0.5686,0.0366,0.8669,1.9760,0.2899,11.5814,0.000000,0.000000,0.00
0.5942,-0.0178,0.8501,-4.5242,3.9673,10.2463,0.000000,0.000000,0.00
0.5022,0.0256,0.9578,-0.8545,0.1984,2.9068,0.000000,0.000000,0.00
0.4199,0.0283,0.9202,0.0916,-8.3313,7.9193,0.000000,0.000000,0.00
0.4978,-0.1257,1.0818,-5.3940,-1.2741,3.6926,0.000000,0.000000,0.00
0.4307,0.0327,1.0635,-12.6724,5.1575,-0.5875,0.000000,0.000000,0.00
0.4495,-0.2104,0.7070,-9.6512,-10.0555,-0.2213,0.000000,0.000000,0.00
0.5029,-0.0476,0.9963,-3.9749,-3.3112,1.0376,0.000000,0.000000,0.00
0.5376,0.1172,0.7585,2.2888,0.0305,11.9171,0.000000,0.000000,0.00
0.4807,0.0193,0.9749,-2.4643,-1.2817,9.4910,0.000000,0.000000,0.00
0.3652,0.0266,0.8423,-3.2501,5.1727,3.7231,0.000000,0.000000,0.00
0.4011,-0.1787,0.8254,-7.5302,2.2507,-2.8610,0.000000,0.000000,0.00
0.2134,-0.2690,0.9978,-9.9182,0.2899,-19.3710,0.000000,0.000000,0.00
0.2507,-0.0937,0.9600,-9.6970,2.6703,-16.7923,0.000000,0.000000,0.00
0.2571,-0.0964,0.8704,-4.1733,-1.3428,-11.4822,0.000000,0.000000,0.00
0.3289,-0.0173,0.8037,-6.5231,-5.1422,-5.8975,0.000000,0.000000,0.00
0.3618,-0.0137,0.8623,-3.3875,-0.3738,-4.1046,0.000000,0.000000,0.00
0.3176,0.0220,0.8794,-4.7989,3.3264,-2.8992,0.000000,0.000000,0.00
0.3979,-0.0688,0.8030,-6.2103,-3.8834,-1.7014,0.000000,0.000000,0.00
0.4434,-0.1357,0.8748,-3.0594,3.8910,-9.0485,0.000000,0.000000,0.00
0.3906,-0.0859,0.8311,-4.4098,2.4033,-0.1602,0.000000,0.000000,0.00
0.3652,-0.1011,0.8347,-1.9379,1.9302,4.6387,0.000000,0.000000,0.00
0.4192,0.1067,0.7532,3.7460,4.3869,9.1705,0.000000,0.000000,0.00
0.5442,0.1934,0.8809,4.6005,-1.5945,20.5841,0.000000,0.000000,0.00
0.4634,0.0627,0.8818,3.1433,7.5378,23.1476,0.000000,0.000000,0.00
0.5029,-0.0027,0.9048,-3.2272,-0.2060,6.5842,0.000000,0.000000,0.00
0.5000,-0.0718,0.7532,-0.3510,-0.7706,12.6038,0.000000,0.000000,0.00
0.4724,0.0454,0.7334,3.8071,3.0975,7.2556,0.000000,0.000000,0.00
0.3860,-0.0388,0.7600,-4.7760,-1.4267,3.8147,0.000000,0.000000,0.00
0.4658,-0.0059,0.9307,-3.0899,1.4267,0.2823,0.000000,0.000000,0.00
0.4236,0.0732,0.9116,-2.2736,-3.0746,-0.8163,0.000000,0.000000,0.00
0.3650,0.0723,0.8140,-2.0218,-1.6022,4.1122,0.000000,0.000000,0.00
0.4277,0.0981,0.9302,-0.2289,0.1907,8.3084,0.000000,0.000000,0.00
0.5886,0.0786,0.9319,4.6082,-1.2970,23.8037,0.000000,0.000000,0.00
0.4546,0.0916,0.8518,3.9444,0.0229,25.8636,0.000000,0.000000,0.00
0.4812,0.0835,0.7952,3.7003,3.9215,15.1825,0.000000,0.000000,0.00
0.4031,0.0737,0.8569,1.5793,3.6240,10.3760,0.000000,0.000000,0.00
0.5779,-0.1079,0.8389,-0.0916,-0.5035,7.3700,0.000000,0.000000,0.00
0.4104,-0.0889,0.9397,-2.8839,2.8763,2.1515,0.000000,0.000000,0.00
0.4570,-0.0171,0.8494,-4.2038,2.8687,-0.7935,0.000000,0.000000,0.00
0.4270,-0.0127,0.8738,-3.2349,-2.2888,0.3052,0.000000,0.000000,0.00
0.4458,-0.0969,0.8123,-1.9836,0.3815,-0.2594,0.000000,0.000000,0.00
0.3157,0.0728,0.8955,-1.4877,8.3771,0.4654,0.000000,0.000000,0.00
0.5752,-0.0344,0.8450,-6.5842,2.3041,3.5706,0.000000,0.000000,0.00
0.2385,0.0750,0.9011,-2.8458,1.7853,1.5793,0.000000,0.000000,0.00
0.4441,-0.0188,0.8428,-2.4719,6.4316,-0.1297,0.000000,0.000000,0.00
0.4106,-0.1040,0.8628,-3.1738,-0.8774,1.6861,0.000000,0.000000,0.00
0.3914,0.0742,0.8062,-1.3504,7.5912,0.9155,0.000000,0.000000,0.00
0.2661,-0.0530,0.8440,-5.2414,0.5569,0.3281,0.000000,0.000000,0.00
0.2410,0.1602,0.8923,-5.2643,-4.2419,2.1667,0.000000,0.000000,0.00
0.2380,0.1528,0.8958,-0.5646,3.5782,-1.0834,0.000000,0.000000,0.00
0.0193,0.0432,1.0549,-4.5242,-8.4152,0.6714,0.000000,0.000000,0.00
0.4155,-0.0786,0.7683,0.9460,10.6812,-0.2441,0.000000,0.000000,0.00
0.3721,-0.0156,0.6360,-3.7079,1.2436,1.9531,0.000000,0.000000,0.00
0.4697,-0.1021,0.7891,-5.4398,0.0076,-2.2354,0.000000,0.000000,0.00
0.4731,-0.1077,0.9048,-5.7220,2.5177,0.3433,0.000000,0.000000,0.00
0.5244,-0.1008,0.7937,-1.7090,0.2747,-0.8545,0.000000,0.000000,0.00
0.4932,-0.1077,0.7512,-1.9836,1.5259,0.0610,0.000000,0.000000,0.00
0.4067,-0.1655,0.8813,-3.8605,2.2278,0.3967,0.000000,0.000000,0.00
0.5244,-0.0693,0.8008,-2.0905,-4.7226,1.5793,0.000000,0.000000,0.00
0.2991,0.0393,0.6741,-1.8005,0.3281,1.7471,0.000000,0.000000,0.00
0.5891,-0.1201,0.8447,-4.6310,1.0147,2.2202,0.000000,0.000000,0.00
0.4756,-0.1404,0.8230,0.0458,0.5569,0.8850,0.000000,0.000000,0.00
0.5300,-0.1433,0.8699,-1.4114,3.0060,2.2354,0.000000,0.000000,0.00
0.5530,-0.0723,0.8828,-4.1504,1.9913,2.0676,0.000000,0.000000,0.00
0.4373,-0.0266,0.7781,-0.9613,-1.6479,1.6785,0.000000,0.000000,0.00
0.3958,-0.1116,0.8374,-4.1656,2.7542,1.8234,0.000000,0.000000,0.00
0.4717,-0.0964,0.9482,-4.1199,2.2278,1.4420,0.000000,0.000000,0.00
0.4492,-0.0298,0.8767,-2.7313,6.4697,0.1297,0.000000,0.000000,0.00
0.3982,-0.0161,0.6592,0.3662,2.0447,-0.1297,0.000000,0.000000,0.00
0.4373,-0.1321,0.8684,-4.3259,-7.1945,2.6932,0.000000,0.000000,0.00
0.4490,-0.0486,0.9363,-5.8899,4.9057,1.1063,0.000000,0.000000,0.00
0.4434,-0.0303,0.8892,-2.2125,4.0741,0.7629,0.000000,0.000000,0.00
0.3354,-0.0764,0.8621,-3.5324,2.1744,-0.0153,0.000000,0.000000,0.00
0.4241,-0.0464,0.9270,-5.5389,4.9210,0.7019,0.000000,0.000000,0.00
0.5254,-0.0977,0.7856,-1.1368,-4.5547,0.7782,22.621960,88.432449,45.99
0.4766,-0.0635,0.6877,0.7324,-1.1978,1.0071,22.622086,88.432487,46.91
0.4758,-0.0962,0.8521,-3.3722,1.8311,1.1749,22.622217,88.432526,47.36
0.4985,-0.0444,0.8738,-1.6556,4.1733,-0.6714,22.622309,88.432518,47.43
0.4436,0.0540,0.8137,-4.9591,2.7008,1.3123,22.622402,88.432526,46.39
0.5071,-0.1653,0.9055,-1.9073,10.0479,-0.4578,22.622540,88.432541,52.62
0.4363,-0.0708,0.9167,-3.7308,4.8523,1.0529,22.622669,88.432549,53.24
0.3984,-0.1609,0.8557,-4.0894,-0.6027,1.1749,22.622755,88.432541,54.71
0.5237,-0.0027,0.8555,-1.3809,4.0741,-0.6561,22.622879,88.432549,55.71
0.2329,0.0176,0.7222,4.1046,2.2507,-6.9962,22.623028,88.432564,58.47
0.4143,-0.0166,0.9407,-4.6921,3.6087,0.4120,22.623144,88.432579,57.00
0.3997,0.0486,0.8411,-2.7237,-2.6932,0.7324,22.623297,88.432594,58.99
0.5583,-0.0125,0.8215,-5.7373,0.7629,0.9613,22.623297,88.432594,58.99
0.3569,-0.0876,0.5623,3.0518,-15.6097,-0.2441,22.623297,88.432594,58.99
0.3887,-0.0916,0.6682,1.1292,-6.9733,-0.1602,22.623297,88.432594,58.99
0.2700,-0.1877,0.6462,1.9302,-6.2866,3.5324,22.623297,88.432594,58.99
0.2234,-0.0432,1.0874,-8.2474,-2.2507,2.8229,22.625023,88.433067,56.17
0.2402,-0.1650,0.5312,4.2038,-8.8501,-1.2283,22.625116,88.433075,56.23
0.2656,-0.0754,0.9504,-5.7297,11.2381,1.9531,22.625248,88.433098,57.15
0.2996,-0.0625,1.0989,-6.2790,4.0283,1.2512,22.625383,88.433113,56.91
0.3477,-0.0940,0.7812,-0.8240,-8.5144,1.4572,22.625534,88.433128,55.10
0.4246,0.0515,0.8257,-2.5940,6.4087,0.2060,22.625675,88.433151,53.43
0.2891,0.0693,0.9897,-4.2953,3.0060,0.5035,22.625803,88.433167,50.06
0.1821,-0.0942,0.7607,-0.1678,-1.9684,0.8926,22.625917,88.433189,46.76
0.2891,-0.1082,0.7595,-4.1580,4.6005,2.6093,22.626139,88.433228,39.08
0.2480,0.0156,1.0164,-6.1493,5.6686,2.4490,22.626245,88.433243,39.11
0.2346,-0.0107,0.8411,-1.0300,0.0534,0.0305,22.626328,88.433258,32.32
0.4067,-0.0291,1.0400,-3.2806,-4.3869,1.3123,22.626400,88.433273,26.52
0.2424,0.0120,0.8354,-1.6174,-6.2256,0.3052,22.626461,88.433281,23.28
0.3542,0.0090,0.9221,-2.6703,0.3510,0.4883,22.626495,88.433281,19.61
0.3315,0.0239,0.8723,-0.5188,-1.4191,0.0916,22.626543,88.433296,14.22
0.2593,0.0437,0.8130,-3.0899,0.1297,0.6638,22.626577,88.433311,10.59
0.3403,0.0205,0.8560,-2.2430,-1.8234,1.5564,22.626604,88.433319,7.43
0.3345,0.0044,0.8479,-2.0294,2.0523,0.6332,22.626619,88.433327,4.59
0.3406,-0.0049,0.8953,-2.8610,-0.0458,0.4807,22.626627,88.433327,2.50
0.3755,-0.0205,0.8567,-2.3727,0.8621,0.0153,22.626553,88.433311,1.17
0.4341,-0.0491,0.8728,-3.6545,-1.9989,1.1444,22.626476,88.433304,1.81
0.4143,-0.0408,0.8594,-2.7542,1.6708,0.9308,22.626471,88.433304,1.83
0.4666,-0.0806,0.8491,-4.6310,-3.7766,1.9073,22.626471,88.433304,1.50
0.3975,-0.0349,0.8616,-2.2430,3.0212,0.3128,22.626467,88.433304,0.26
0.4038,-0.0156,0.8745,-1.5793,1.7319,0.0992,22.626469,88.433304,1.11
0.4089,-0.0073,0.9043,-0.3510,7.9651,-1.0757,22.626472,88.433304,1.31
0.4143,-0.0068,0.8572,-2.4490,2.7008,0.6332,22.626471,88.433304,0.89
0.4126,-0.0198,0.8677,-3.3951,-0.5188,1.2970,22.626446,88.433296,0.43
0.3967,-0.0383,0.8655,-5.8899,-3.2883,2.7008,22.626459,88.433296,0.19
0.5083,-0.0786,0.8782,-3.3417,0.0381,1.1749,22.626444,88.433289,0.65
0.4951,-0.1052,0.8267,-0.9003,3.6545,0.0305,22.626431,88.433289,0.96
0.5056,-0.1165,0.7969,-2.8000,-0.1907,1.0529,22.626446,88.433289,3.69
0.3691,-0.0090,0.8950,-2.6245,1.7242,1.1902,22.626446,88.433289,5.76
0.3315,-0.0261,0.8328,-2.3499,1.7471,0.7324,22.626453,88.433289,4.59
0.4033,-0.0398,0.8652,-2.3880,0.6027,0.8087,22.626448,88.433273,2.83
0.4656,-0.0825,0.8481,-3.7994,-2.5024,1.9150,22.626457,88.433273,2.48
0.5200,-0.1152,0.7549,-3.3646,-1.2665,1.2970,22.626469,88.433273,4.32
0.4229,-0.0803,0.8579,-4.1504,1.4038,1.1368,22.626488,88.433281,5.59
0.3591,-0.0352,0.8789,-2.4567,5.8136,1.0147,22.626511,88.433281,9.20
0.4529,-0.0671,0.8723,-7.2708,-4.9362,3.2578,22.626530,88.433281,7.41
0.3950,-0.0215,0.8838,-2.8076,0.9384,0.9155,22.626547,88.433289,5.24
0.3960,-0.0620,0.8423,-2.8000,0.3738,1.0910,22.626575,88.433296,4.98
0.5325,-0.0747,0.8997,-3.0212,-2.2125,1.6327,22.626593,88.433296,5.69
0.4246,-0.0398,0.8438,-2.7542,0.2670,0.8926,22.626612,88.433296,6.37
0.3984,-0.0649,0.8689,-2.5558,2.9602,0.8316,22.626637,88.433296,9.22
0.3452,-0.0981,0.8894,-5.1117,0.0076,-9.6207,22.626661,88.433304,9.04
0.0967,-0.2004,0.7339,-13.2828,-1.9455,-17.2195,22.626661,88.433311,7.87
0.4238,-0.1321,0.8020,-21.9421,5.4550,-24.8566,22.626623,88.433304,5.96
0.2061,-0.1545,0.8643,-13.6642,-2.1591,-30.2505,22.626602,88.433319,8.22
0.3752,-0.1545,0.6316,-10.4752,3.1586,-36.7432,22.626629,88.433334,6.80
0.3767,-0.3057,0.8652,-16.4719,4.0512,-30.9525,22.626631,88.433350,6.70
0.4905,-0.1313,0.8110,-4.8294,0.7401,-9.1248,22.626591,88.433357,10.87
0.4260,-0.1023,0.9250,-3.6011,1.9455,0.1907,22.626560,88.433350,10.00
0.4365,-0.0911,0.8918,-4.4708,-0.7477,3.1433,22.626522,88.433342,13.56
0.5376,-0.1042,0.8064,-2.5101,-3.1433,1.3275,22.626484,88.433334,16.11
0.4819,-0.0845,0.7971,-3.7689,-2.0447,1.1978,22.626425,88.433327,21.22
0.4988,-0.2024,0.9116,-3.5858,1.4038,1.2512,22.626371,88.433319,22.30
0.4456,-0.0583,0.8965,-4.5547,-2.0676,1.6403,22.626307,88.433311,25.22
0.3408,0.0059,0.8225,-3.7613,3.0289,1.5335,22.626255,88.433304,23.59
0.4390,-0.0708,0.7878,-2.2964,-0.9384,0.2060,22.626194,88.433296,27.37
0.4507,0.0266,0.8547,-2.7008,0.0458,1.1215,22.626144,88.433289,26.08
0.1033,0.1343,1.1152,-2.9602,-8.7280,3.1662,22.626078,88.433289,28.13
0.5149,-0.1187,0.8518,-3.3493,-0.4425,1.2207,22.626001,88.433281,30.24
0.4919,-0.1606,0.8540,-1.8234,-0.2213,0.2213,22.625921,88.433266,33.17
0.3967,-0.0833,0.7297,-3.5248,-1.5411,0.6790,22.625832,88.433258,36.82
0.4170,-0.0671,0.7874,-0.7782,-5.1422,0.8926,22.625732,88.433243,37.48
0.5115,-0.0876,0.7893,-2.1210,-1.6403,1.0452,22.625641,88.433228,38.35
0.4646,-0.1262,0.8955,-4.7989,-2.0523,2.3804,22.625540,88.433212,40.61
0.4563,0.0547,0.9668,-3.6697,-2.6245,0.7477,22.625443,88.433205,40.98
0.3853,-0.0439,0.6035,0.0076,-3.2272,-0.3586,22.625347,88.433189,40.32
0.3994,-0.0085,0.8132,-1.9684,1.1597,0.7706,22.625244,88.433182,42.98
0.4941,-0.1777,0.8389,-2.8915,1.2589,0.7629,22.625141,88.433174,45.74
0.3591,-0.0427,0.8828,-2.8152,2.5406,0.5417,22.625036,88.433167,46.21
0.5918,-0.0605,0.9431,-4.5929,-5.2643,0.2594,22.624943,88.433159,43.67
0.5044,-0.1899,0.9277,-3.3722,-2.7466,1.5411,22.624817,88.433136,47.00
0.4194,-0.3347,0.8210,0.4501,-5.2567,-2.3422,22.624691,88.433105,47.76
0.4817,-0.2117,0.8093,-1.8311,-0.2518,0.8011,22.624598,88.433098,45.47
0.3760,-0.1218,0.7942,-1.6708,-2.7771,1.3504,22.624489,88.433083,46.37
0.4753,-0.1279,0.8345,-4.2572,2.7924,0.2823,22.624340,88.433060,53.21
0.4363,-0.1580,0.9077,-1.8311,2.4490,0.8316,22.624226,88.433044,55.32
0.5112,-0.0615,0.8049,0.0534,-3.7613,0.1297,22.624084,88.433022,59.49
0.3796,-0.1055,0.8474,-4.6844,4.1962,0.6180,22.623941,88.432999,61.54
0.4451,-0.0320,0.9495,-4.4250,-0.9384,1.3657,22.623804,88.432976,59.91
0.0422,-0.0647,0.6973,5.2338,8.6288,-3.3188,22.623655,88.432953,59.82
0.4001,-0.0090,0.8164,-0.8621,-3.6011,-0.2060,22.623512,88.432938,62.45
0.4062,-0.0486,0.9399,-2.6169,-0.0534,0.6638,22.623398,88.432922,60.89
0.3853,0.0027,0.8618,-3.4866,0.5035,0.7019,22.623262,88.432915,59.88
0.3167,-0.0920,0.8462,-1.0071,1.5717,-1.1978,22.623129,88.432899,58.10
0.2290,0.0151,0.9929,-0.8087,10.4675,1.2741,22.622919,88.432846,68.06
0.3208,0.1052,1.0168,-4.2496,-12.6038,4.2648,22.622791,88.432800,63.43
0.2668,-0.0234,0.8020,-3.3646,4.7226,0.1984,22.622690,88.432785,55.80
0.3481,-0.0962,0.7659,-6.3019,-4.6005,1.8539,22.622559,88.432770,52.82
0.3503,-0.1963,0.8337,-0.4272,-12.1994,-0.8163,22.622440,88.432755,52.10
0.4282,-0.0562,1.0264,-5.6076,8.4152,-0.1144,22.622290,88.432732,57.73
0.4028,-0.0959,0.8911,-5.3864,3.3951,1.6174,22.622158,88.432709,55.76
0.4424,-0.0811,0.9478,-1.4725,2.7237,0.5646,22.622019,88.432686,56.37
0.3110,-0.0564,0.7222,-1.3733,4.5700,0.5417,22.621904,88.432671,57.13
0.4268,-0.1558,0.9597,-3.2806,1.7319,2.3727,22.621761,88.432648,59.23
0.4202,-0.1438,0.8870,-3.7231,3.1891,1.3351,22.621630,88.432625,60.21
0.3755,-0.1147,0.9016,-4.2038,-2.0599,1.5106,22.621490,88.432610,59.25
0.3340,-0.0251,0.8823,-4.4327,2.5787,1.3046,22.621361,88.432594,59.23
0.3350,-0.0112,0.8291,-1.9073,0.2441,0.2899,22.621071,88.432549,59.69
0.3635,-0.0176,0.8833,-4.4403,5.7831,1.6632,22.620937,88.432526,56.36
0.0146,0.0161,1.2959,-7.9117,13.1836,1.7700,22.620811,88.432518,54.36
0.3164,-0.1819,0.7415,-1.0834,-2.2430,1.7853,22.620672,88.432495,55.95
0.5325,-0.1321,1.0283,-5.4474,-0.2365,2.4414,22.620537,88.432472,56.19
0.4758,-0.1882,0.7268,0.9613,-3.2883,0.3510,22.620398,88.432449,56.00
0.4209,-0.0889,0.8616,-2.5177,4.5319,1.0834,22.620256,88.432434,57.13
0.2952,-0.0771,0.7600,-2.8763,0.8545,1.1749,22.620121,88.432411,57.76
0.2896,0.0527,0.8616,-1.6861,-0.0076,0.4349,22.619982,88.432396,60.84
0.4038,-0.0811,0.9014,-4.3335,-4.1275,1.8311,22.619843,88.432381,59.50
0.3894,-0.0942,0.8455,-1.9073,3.9368,-0.2594,22.619705,88.432358,58.15
0.4041,-0.0334,0.8699,-4.2953,2.1667,1.2665,22.619562,88.432343,58.10
0.4614,-0.1831,0.8245,0.2060,-3.9444,1.0986,22.619425,88.432320,58.39
0.3879,-0.1558,0.8948,-4.5471,-0.5722,0.9460,22.619272,88.432304,59.13
0.4565,-0.1101,0.9211,-4.8828,0.0153,1.7166,22.619125,88.432289,58.73
0.4666,-0.0437,0.9438,-1.2970,-1.2283,0.0992,22.618982,88.432266,58.80
0.4600,-0.1155,0.9458,-1.0300,-0.6256,-0.1373,22.618835,88.432251,59.69
0.3718,-0.0234,0.8674,-3.2501,4.2877,-0.6714,22.618706,88.432236,59.04
0.3843,0.0298,0.8662,-1.3504,-0.4425,-0.9613,22.618591,88.432228,56.12
0.3904,-0.1089,0.8831,-3.2120,-1.4954,0.0000,22.618462,88.432205,57.02
0.4958,-0.0259,0.9167,-6.5765,3.4943,-2.9602,22.618332,88.432182,57.25
0.1763,-0.2437,0.7571,2.8305,-6.9733,-1.5640,22.618166,88.432137,57.36
0.5071,-0.1406,1.0779,-9.0561,-2.9144,2.1133,22.617977,88.432076,59.26
0.3333,-0.0454,0.9353,0.4272,5.4474,-3.6011,22.617802,88.432014,59.43
0.4712,0.0537,0.9102,-2.6321,0.2441,-0.6027,22.617645,88.431953,59.84
0.3660,0.0664,1.0798,-10.6125,7.9727,3.0441,22.617496,88.431892,60.04
0.7263,0.0374,0.4788,2.1057,22.1481,-6.3171,22.617350,88.431831,59.58
0.4402,-0.0750,0.7646,-0.5722,-1.4725,-1.1749,22.617191,88.431770,59.34
0.4458,-0.1719,0.6199,3.8223,-2.4490,-1.6403,22.617044,88.431709,58.89
0.0415,0.0635,0.8948,0.5112,9.7885,-1.6785,22.616905,88.431641,58.82
0.5029,-0.0522,0.9172,-4.8904,3.4332,0.9384,22.616766,88.431564,58.39
0.4780,-0.0562,0.9202,-1.7776,-13.1378,1.5259,22.616632,88.431488,58.45
0.2922,0.0425,0.9065,-5.2185,9.0942,0.8850,22.616497,88.431419,58.30
0.5662,-0.4016,0.9790,-9.6283,-19.8135,3.7231,22.616360,88.431343,58.10
0.4888,-0.2429,0.8633,-2.7542,-2.7390,0.4196,22.616224,88.431267,57.63
0.1860,-0.1765,0.4380,-19.5541,-0.1984,18.5318,22.616085,88.431190,56.97
0.5203,-0.0132,1.0459,-2.7771,3.2806,2.0676,22.615957,88.431114,56.45
0.4600,-0.0615,0.9839,-4.9362,7.6828,1.7242,22.615828,88.431038,56.13
0.2214,0.0784,1.0679,-8.9035,-2.5406,2.9755,22.615700,88.430969,56.06
0.2214,-0.2214,0.6650,-3.0289,4.2419,1.8005,22.615570,88.430893,56.00
0.5298,-0.1499,1.0845,-3.8681,-8.0032,4.4708,22.615435,88.430817,56.21
0.3887,-0.1877,0.8228,2.3880,-1.2970,-1.9608,22.615299,88.430740,56.32
0.6907,-0.1174,0.6282,5.2185,-0.5875,-1.2817,22.615168,88.430664,56.34
0.4631,-0.0637,0.7725,-1.8005,1.9379,-0.2213,22.615038,88.430588,55.87
0.3989,0.2009,1.1135,-8.5754,13.2828,1.9531,22.614912,88.430519,55.36
0.3235,-0.1423,0.6626,3.6469,6.0043,2.0905,22.614784,88.430443,55.34
0.5842,-0.1594,0.9656,-9.3307,6.8130,-0.4120,22.614662,88.430367,55.08
0.0803,-0.0730,0.9031,0.0839,0.3967,-0.5951,22.614536,88.430290,54.99
0.1360,-0.0208,1.1233,-3.6469,10.1089,1.6022,22.614410,88.430214,55.41
0.3748,-0.0034,1.1619,-8.0261,4.1656,2.8305,22.614279,88.430130,55.62
0.3057,0.0337,0.6440,3.9520,0.3815,-4.9667,22.614153,88.430054,55.80
0.5051,-0.1079,0.8235,2.8152,-11.7874,0.1602,22.614029,88.429977,56.76
0.5591,-0.1995,0.8503,-0.4120,-9.3689,4.0741,22.613901,88.429893,57.52
0.1467,-0.1274,0.8586,-2.2278,4.8141,2.8152,22.613770,88.429817,58.45
0.4219,-0.0361,1.0354,-5.7068,9.2850,0.0381,22.613636,88.429733,59.52
0.3560,0.0125,0.5154,9.5139,-5.7449,-2.0142,22.613503,88.429649,60.50
0.3679,-0.0195,1.0471,-6.0120,4.4861,2.2354,22.613367,88.429565,61.19
0.4214,-0.1484,1.0596,-11.2991,5.2338,2.2430,22.613228,88.429474,62.63
0.4929,-0.1821,1.0313,-11.5585,-11.3983,5.1880,22.613085,88.429390,63.54
0.4658,-0.0208,0.7542,-1.3275,0.0229,0.6790,22.612946,88.429306,64.21
0.6050,0.0679,0.8027,1.1749,-4.8904,0.7477,22.612803,88.429214,65.45
0.8010,-0.0269,1.3330,-9.2239,6.6910,2.2125,22.612656,88.429131,65.95
0.7668,0.0562,0.8582,-1.5945,23.6053,1.2436,22.612509,88.429047,67.17
0.8381,-0.1194,0.4727,6.3858,-4.9591,-1.1978,22.612360,88.428963,67.97
0.0239,0.0256,1.0432,-1.5945,-1.1520,0.1602,22.612207,88.428879,68.82
0.3828,0.0151,0.9675,-1.0529,1.9226,0.1297,22.612057,88.428795,69.01
0.6248,0.0056,1.1765,-1.9531,-1.2741,-0.1755,22.611904,88.428711,69.36
0.4792,-0.1521,1.0232,2.2964,-13.7329,1.0452,22.611755,88.428635,69.32
0.4478,-0.1509,1.0352,-4.0436,9.4299,0.0763,22.611593,88.428551,69.62
0.7412,-0.0439,1.0356,-12.8784,19.1650,5.7983,22.611429,88.428467,69.76
0.3547,-0.1584,1.3289,-15.3961,2.2888,8.2474,22.611265,88.428375,69.97
0.4275,0.0278,1.1484,-3.1662,-3.7155,1.6174,22.611111,88.428299,70.32
0.3503,-0.1184,0.5327,-0.3738,0.2899,-1.4267,22.610952,88.428207,70.60
0.3213,-0.1013,0.7554,-1.0376,-9.7809,1.8921,22.610792,88.428131,70.86
0.5203,-0.0840,0.9626,-4.7913,-9.8495,2.1591,22.610632,88.428040,71.12
0.1475,0.0400,0.8740,-0.8850,-12.3215,1.4725,22.610474,88.427956,70.47
0.6201,0.0332,0.8792,-0.9689,-1.2894,-1.9684,22.610313,88.427879,69.78
0.2542,-0.0776,1.0879,-10.4675,12.3367,1.8463,22.610155,88.427795,68.99
0.4529,-0.0703,0.9692,-3.5477,3.3798,0.7324,22.610003,88.427711,68.51
0.6873,0.0457,0.8491,-1.6861,-5.8975,1.6098,22.609846,88.427628,67.97
0.4893,0.0857,0.6033,-1.5259,1.3580,-1.1597,22.609690,88.427551,67.78
0.4644,0.1470,0.9138,2.8610,9.7351,-5.6534,22.609535,88.427467,67.75
0.6826,-0.1189,1.1140,-10.4446,-2.9755,3.0518,22.609386,88.427383,67.39
0.4285,-0.1538,1.1550,-14.6484,16.4871,4.1199,22.609234,88.427307,67.28
0.4250,-0.2402,0.4666,10.9253,-3.5172,-2.2888,22.609081,88.427223,67.21
0.5122,-0.0718,0.7717,-1.0071,-4.6692,-1.7776,22.608931,88.427147,66.80
0.4280,0.0017,0.8318,-1.1673,3.3340,1.1444,22.608780,88.427071,67.10
0.5481,-0.0996,0.5723,1.1139,-3.2501,1.1520,22.608629,88.426987,67.28
0.4211,0.0156,0.7854,-0.5722,-7.8812,0.0839,22.608477,88.426910,66.91
0.3511,-0.1113,0.8193,-2.0142,-1.8311,-0.8240,22.608322,88.426834,66.62
0.4106,-0.0359,0.9419,-4.8599,-3.2578,2.4490,22.608168,88.426765,66.19
0.4788,-0.0901,0.3586,4.0207,-6.9199,-0.6866,22.607857,88.426628,65.63
0.4192,0.0005,0.9404,-7.9651,-11.6577,6.0959,22.607700,88.426559,65.51
0.3193,-0.0918,0.8176,-1.4114,-1.3275,0.8926,22.607546,88.426498,65.17
0.6511,-0.0288,0.9705,-7.0953,13.2904,2.1667,22.607391,88.426437,65.21
0.2405,-0.2910,0.6609,4.3564,-33.3176,1.6937,22.607231,88.426369,65.26
0.2187,-0.0564,1.0251,-4.4479,6.0806,0.5341,22.607073,88.426308,65.43
0.2737,-0.1978,0.8040,-2.8458,0.7935,1.8692,22.606916,88.426239,65.51
0.3625,-0.1086,0.9067,-1.9913,4.6768,-0.3967,22.606758,88.426178,65.69
0.4478,-0.0549,0.9539,-2.3346,2.6321,0.3815,22.606602,88.426109,65.93
0.7056,-0.0227,0.9263,0.6790,-9.7885,2.1744,22.606443,88.426048,66.10
0.5308,-0.0757,1.0942,-1.7166,10.9100,0.5188,22.606285,88.425980,66.38
0.3616,-0.1731,0.4702,0.5112,6.9122,-2.2049,22.606125,88.425911,66.38
0.4978,-0.0146,0.9253,-3.6697,7.0953,1.6327,22.605965,88.425850,66.43
0.5908,0.0859,0.8784,-0.4883,-3.2425,1.4954,22.605804,88.425781,66.54
0.4133,-0.0435,1.2961,-14.7171,3.2349,-1.8692,22.605646,88.425713,66.78
0.1118,-0.0237,0.9460,-5.2032,-3.2120,0.0687,22.605492,88.425636,66.76
0.0571,-0.3289,1.0608,-1.9379,-0.3357,1.0452,22.605337,88.425545,67.04
0.4568,-0.0977,1.0840,-10.2463,1.3962,1.1673,22.605190,88.425461,67.01
0.2263,-0.0234,1.1362,-7.4615,22.2321,0.9384,22.605049,88.425362,66.82
0.3130,-0.0596,0.6013,-5.3329,0.7706,-2.3117,22.604910,88.425262,66.71
0.3359,-0.2539,0.9287,-7.6523,-5.7831,1.2817,22.604774,88.425163,66.60
0.4299,-0.0796,1.0754,-4.6692,10.3302,-1.6327,22.604639,88.425049,66.71
0.4646,-0.0322,1.0991,-3.7842,3.3112,-0.3052,22.604509,88.424934,66.08
0.4536,-0.1677,1.1021,-15.4190,2.3041,5.0201,22.604385,88.424820,65.67
0.3044,-0.1084,0.6267,-1.3199,0.4730,4.0588,22.604263,88.424698,64.67
0.5417,-0.1340,0.9109,-6.4240,-0.0992,-0.0992,22.604145,88.424576,65.28
0.2749,-0.1646,1.0029,-5.8975,7.1106,-0.4272,22.604033,88.424438,66.32
0.3765,-0.0522,0.8418,-1.5717,4.4327,-2.6245,22.603920,88.424301,67.02
0.2424,-0.0391,1.1606,-4.7302,1.0071,-0.3052,22.603813,88.424156,67.30
0.2502,-0.0710,0.6870,7.4387,-2.8763,-5.9280,22.603710,88.424011,67.01
0.5789,-0.0256,1.1899,-10.4904,1.5564,1.8005,22.603617,88.423859,66.93
0.1987,-0.0376,0.7849,-1.8539,-2.9068,-0.9613,22.603525,88.423706,67.56
0.5696,-0.1301,0.9407,-6.7596,-4.5242,1.4496,22.603437,88.423553,67.17
-0.2209,0.0286,1.0696,0.1678,17.7002,-3.2425,22.603355,88.423401,65.89
0.0605,0.0154,1.0508,1.1368,7.8735,-2.9755,22.603283,88.423241,64.91
0.3274,-0.0884,0.9531,-5.0583,15.4648,-2.7466,22.603212,88.423088,63.75
0.5283,-0.0903,1.1555,-8.0414,-0.9384,0.0000,22.603153,88.422935,61.88
0.2292,-0.2812,0.8811,-3.8452,-0.8850,2.7390,22.603098,88.422783,60.12
0.1609,0.2368,0.1169,17.8223,24.8642,-10.5743,22.603048,88.422638,58.12
0.0698,-0.0242,1.2942,-11.0474,7.9346,-2.6321,22.603006,88.422493,56.45
0.1824,-0.1274,0.8967,-0.6180,0.7706,-1.8616,22.602968,88.422356,54.49
0.2295,-0.0366,1.2312,-9.6207,3.7079,2.5711,22.602934,88.422211,54.45
0.4897,-0.0627,1.0071,-3.6469,-3.2959,-0.2365,22.602905,88.422066,54.47
0.5881,-0.0581,0.9526,-3.9520,3.2196,-1.2283,22.602882,88.421921,54.45
0.5010,-0.2041,0.8379,-7.6370,-8.4610,2.7390,22.602865,88.421776,54.50
0.1008,0.2073,1.1211,-2.2888,4.1809,-0.9537,22.602850,88.421631,54.41
0.4626,-0.0889,0.9883,-11.6196,-5.6152,6.7139,22.602840,88.421486,53.00
0.4829,0.1321,1.1309,-8.6517,11.7950,1.8692,22.602833,88.421349,51.10
0.0542,0.0117,0.7151,0.1602,4.9438,-2.6398,22.602829,88.421211,49.30
0.2927,-0.0327,0.7527,-2.4261,9.0790,-0.7401,22.602827,88.421082,46.65
0.3743,-0.1067,0.8694,-1.7090,-0.5798,-0.3815,22.602827,88.420967,43.23
0.3892,-0.0327,0.9155,-3.6087,2.2964,0.9689,22.602833,88.420853,40.93
0.3374,-0.0984,0.9529,-2.1057,4.6082,0.0763,22.602839,88.420746,39.54
0.3186,-0.0459,0.8789,-1.6708,0.8926,-0.2975,22.602846,88.420639,37.82
0.3330,-0.1201,0.8997,-4.7226,2.0981,0.7401,22.602854,88.420547,35.63
0.3728,0.0281,0.9397,-3.5324,-2.4567,0.3586,22.602863,88.420456,33.52
0.3750,0.0330,0.9229,-4.0054,0.3204,2.2659,22.602871,88.420372,30.69
0.3782,-0.0010,0.7190,-3.5248,-10.2921,2.3575,22.602879,88.420288,28.78
0.3694,-0.0444,0.8904,-2.9068,1.2360,0.5341,22.602882,88.420219,27.24
0.3674,-0.0239,0.7849,-2.2354,-0.0839,-0.3128,22.602886,88.420143,26.48
0.2683,-0.0618,0.9482,-2.6550,5.6534,0.5875,22.602890,88.420074,24.95
0.2883,0.0215,0.8989,-4.3335,2.9068,1.2054,22.602896,88.420013,22.08
0.3630,-0.0452,0.8870,-3.7308,0.6485,2.0676,22.602900,88.419968,17.26
0.3049,-0.0320,0.9392,-2.6627,-2.6932,1.0071,22.602903,88.419922,14.02
0.3608,-0.0532,0.8679,-3.1281,2.7390,1.2817,22.602905,88.419891,11.06
0.4128,-0.0432,0.8787,-1.6708,1.5869,-0.3052,22.602905,88.419861,10.22
0.4204,-0.0933,0.9114,-2.9068,0.3967,0.0153,22.602907,88.419838,10.11
0.4038,-0.1001,0.8186,-4.4250,0.4425,-0.6104,22.602909,88.419807,10.20
0.3723,-0.1245,0.8389,-2.4719,-1.3351,0.1678,22.602911,88.419777,11.06
0.4062,-0.0725,0.8696,-3.5019,0.7248,0.6714,22.602915,88.419746,11.07
0.4412,-0.1611,0.9150,-1.7624,3.6240,1.4420,22.602919,88.419716,11.85
0.3677,-0.0479,0.8689,-3.6163,3.4103,1.9226,22.602924,88.419678,14.41
0.3784,-0.1145,0.8359,-3.3569,0.7706,2.6627,22.602924,88.419632,16.20
0.4441,-0.0732,0.8662,-1.9913,-0.1984,2.3422,22.602926,88.419586,16.78
0.3940,-0.0779,0.8098,-3.3569,1.6785,-2.1820,22.602928,88.419540,17.56
0.3728,-0.1074,0.8572,-3.5629,1.4038,-0.1678,22.602928,88.419487,18.69
0.4958,-0.0955,0.8499,-1.6403,1.0986,-1.4648,22.602930,88.419434,20.15
0.4316,-0.0234,0.8979,-2.1057,-0.2365,-0.0916,22.602938,88.419373,22.98
0.4204,-0.0264,0.9214,-2.3422,1.2436,1.4420,22.602947,88.419304,25.87
0.4365,-0.0300,0.7573,-1.2436,2.0828,0.9995,22.602955,88.419235,25.80
0.4802,-0.0564,0.9626,-6.0806,-3.3569,1.5411,22.602961,88.419159,28.08
0.5017,-0.1633,0.8630,-2.6779,-1.4725,0.0229,22.602968,88.419075,30.09
0.3457,-0.0789,0.8403,-1.8158,-3.3646,-2.1744,22.602974,88.418991,31.26
0.3994,0.0039,0.8171,-1.9226,-0.0763,0.7401,22.602982,88.418907,32.26
0.4119,-0.0354,0.8386,-5.6229,1.3199,0.9460,22.602991,88.418816,33.56
0.4746,-0.0962,0.8574,-5.2719,0.3738,-0.1526,22.603001,88.418724,34.89
0.4785,-0.0835,0.8350,-5.6534,2.8687,4.1275,22.603010,88.418625,36.67
0.4636,-0.0710,0.8770,-4.9133,-0.3128,1.4267,22.603025,88.418518,38.73
0.3206,-0.1562,0.7698,-2.8458,2.2964,0.8240,22.603033,88.418411,39.65
0.4675,-0.0376,0.8459,-1.3275,2.2583,0.7553,22.603045,88.418304,40.21
0.4663,-0.0828,1.0491,-13.1989,-0.0229,1.8616,22.603056,88.418198,40.26
0.4075,-0.1353,1.0134,6.0501,-7.1564,-4.2648,22.603069,88.418091,40.73
0.4023,-0.1233,0.8574,-2.4414,2.7847,-0.8621,22.603079,88.417976,40.32
0.4771,-0.1479,0.8662,-5.3101,-0.9232,1.8387,22.603092,88.417877,38.71
0.4312,-0.0757,0.8445,-2.1362,-3.4180,1.3580,22.603107,88.417770,37.95
0.3674,-0.1516,0.9175,-3.3569,3.9139,1.0223,22.603142,88.417564,40.60
0.3892,-0.0525,1.0542,-4.6921,3.3112,2.2659,22.603157,88.417450,40.74
0.4089,-0.1335,0.9646,-5.6534,3.7689,1.4877,22.603172,88.417343,40.54
0.3408,-0.1545,0.8137,-3.3035,0.3357,1.0757,22.603186,88.417229,41.91
0.4697,-0.1064,0.8462,-3.3646,0.2747,0.4654,22.603203,88.417114,43.54
0.4839,-0.0410,0.9536,-5.3024,2.8076,2.5253,22.603218,88.416992,44.84
0.5166,-0.1279,0.9160,-3.0212,-1.8539,1.1215,22.603230,88.416870,46.43
0.3601,-0.1301,0.8215,-2.7466,2.1133,0.6714,22.603249,88.416740,47.61
0.4199,-0.1794,0.8049,0.3662,-3.1509,-0.2594,22.603254,88.416611,49.17
0.3713,-0.0266,0.8735,-2.1744,-1.7471,-0.9308,22.603273,88.416473,50.45
0.4016,-0.0066,0.7996,-3.7842,0.0305,-0.4044,22.603296,88.416336,52.10
0.4500,-0.0486,0.8179,-2.9526,-5.9204,1.1597,22.603317,88.416199,53.32
0.5103,-0.1035,0.8284,-1.4801,-0.5112,0.7629,22.603344,88.416054,54.78
0.4810,-0.1794,0.8950,-2.9984,-0.4654,0.2441,22.603365,88.415901,56.17
0.3679,-0.1230,0.7656,-4.7302,2.0218,1.0986,22.603388,88.415749,57.56
0.3364,-0.0618,0.8835,-2.2202,2.0981,0.3281,22.603411,88.415588,58.63
0.4592,-0.0583,0.8291,-2.3041,1.7700,0.6866,22.603437,88.415436,59.80
0.3748,0.0068,0.6289,2.7924,-11.8332,-2.3651,22.603462,88.415276,59.45
0.4246,-0.0112,0.8909,-4.2648,-1.0452,1.8997,22.603485,88.415123,57.67
0.3264,0.1189,0.8962,-0.1450,0.8469,0.6332,22.603502,88.414970,55.75
0.4326,-0.0149,0.8208,-2.7542,-1.6174,1.2283,22.603521,88.414825,53.69
0.4072,-0.0425,0.7493,-4.2267,-8.7585,2.8687,22.603537,88.414688,51.99
0.3735,0.0066,0.8738,-2.8763,-1.8158,0.9613,22.603546,88.414551,51.10
0.3403,-0.0566,0.8784,-2.7618,0.2899,2.1591,22.603561,88.414413,49.93
0.2717,-0.0208,0.7710,1.8616,-1.0757,1.9760,22.603575,88.414284,49.41
0.4336,0.0098,0.9878,-4.9133,3.4485,4.9515,22.603584,88.414154,48.06
0.4927,-0.1062,0.8442,-1.8997,2.6245,2.7161,22.603590,88.414024,47.34
0.4509,0.0134,0.6648,1.5488,-0.9232,2.3346,22.603588,88.413895,46.91
0.4243,0.0317,0.9011,-2.2507,-1.5259,3.4409,22.603580,88.413773,47.41
0.1523,0.0105,0.9180,-3.2883,8.8272,2.8381,22.603561,88.413643,46.49
0.4382,0.0608,0.9409,-3.7537,-3.0441,2.4338,22.603540,88.413521,45.49
0.3796,-0.0217,0.7456,-0.4730,2.1667,1.4038,22.603510,88.413406,44.43
0.4951,0.1248,0.9517,-6.6223,-7.0190,3.8834,22.603483,88.413292,44.52
0.4558,-0.0784,0.7942,0.0000,0.6943,0.8545,22.603455,88.413177,44.84
0.4890,-0.2056,0.7849,-0.8469,-3.0518,0.2365,22.603424,88.413063,45.56
0.4585,-0.0024,0.9492,-3.0975,0.5875,2.9449,22.603392,88.412949,46.49
0.4534,-0.0457,0.8135,-0.0076,-3.6392,3.0060,22.603352,88.412827,46.91
0.3840,-0.1760,0.8008,-1.7776,4.2496,2.5940,22.603304,88.412712,47.39
0.2959,-0.1399,0.8267,-3.8528,-0.3891,0.4349,22.603256,88.412598,47.80
0.4956,0.0198,0.9146,-3.3417,-4.0817,4.3259,22.603201,88.412483,46.73
0.3665,-0.0049,0.7991,-2.1515,0.9537,2.3117,22.603146,88.412369,46.82
0.4446,-0.1074,0.9207,-5.2185,4.0817,4.2496,22.603090,88.412270,45.34
0.4346,-0.0745,0.7666,0.3281,0.7401,1.3275,22.603035,88.412163,44.74
0.4062,-0.0857,0.8687,-1.4038,-0.5722,2.4338,22.602976,88.412056,44.76
0.4180,-0.0916,0.9954,-6.8054,2.5406,2.8305,22.602921,88.411964,44.19
0.5037,-0.0835,0.9290,-5.6839,-0.3967,1.6785,22.602859,88.411865,44.00
0.4583,-0.2163,0.8596,-5.6000,-0.2899,3.3112,22.602797,88.411766,44.65
0.5256,-0.1250,0.8191,-1.4572,-1.5793,-0.9613,22.602732,88.411667,46.36
0.2666,0.0305,0.7917,-3.8528,-1.0605,0.9308,22.602663,88.411568,47.80
0.3428,0.0513,0.9063,-4.0131,3.5934,0.4883,22.602596,88.411461,48.06
0.4651,-0.1287,0.8318,-2.4185,-2.9144,0.9232,22.602530,88.411354,48.69
0.4363,-0.0891,0.9980,-3.7613,4.0588,-1.0071,22.602463,88.411247,49.43
0.4653,-0.1912,0.9749,-5.0812,3.0975,-0.0305,22.602392,88.411133,50.62
0.3696,-0.1943,0.7766,-1.6785,0.4196,-0.9918,22.602322,88.411018,51.62
0.3640,-0.1069,0.8557,-1.2054,0.5188,-0.0687,22.602251,88.410896,52.45
0.3616,-0.0789,0.8435,-3.2654,0.9613,2.3727,22.602182,88.410774,53.62
0.4075,-0.0654,0.9175,-4.5090,-0.0381,1.4954,22.602112,88.410652,54.34
0.4358,-0.0090,0.9097,-3.5248,1.4420,0.9537,22.602041,88.410530,54.54
0.4312,-0.0803,0.8157,-2.2049,0.4425,0.1221,22.601969,88.410408,54.25
0.3589,-0.0603,0.7996,-2.2049,3.1128,-0.1373,22.601896,88.410286,53.89
0.3867,-0.0171,0.8938,-4.3488,3.5629,0.7782,22.601824,88.410164,53.91
0.4492,-0.0557,0.9468,-6.0349,-0.6256,0.9613,22.601753,88.410042,53.69
0.3486,0.0388,0.8645,-4.2191,4.8981,1.8539,22.601683,88.409920,53.71
0.3293,-0.0886,0.9194,-3.3951,5.1117,1.1902,22.601614,88.409798,53.49
0.4004,-0.0293,0.9138,-4.0894,1.2512,1.5259,22.601542,88.409683,53.69
0.4126,-0.0522,0.8982,-2.2812,-0.4044,0.6943,22.601467,88.409561,53.69
0.3669,-0.1055,0.8020,-2.2964,-0.4578,0.8698,22.601395,88.409439,53.67
0.4045,-0.0759,0.7876,-1.3809,-0.9384,0.3662,22.601324,88.409317,53.19
0.3655,0.0332,0.8464,-3.5324,3.9139,1.1673,22.601254,88.409203,52.39
0.3872,-0.1624,0.8796,-5.6534,5.1651,0.8316,22.601183,88.409088,52.13
0.4482,-0.1116,0.9395,-4.2572,1.8768,1.0757,22.601110,88.408974,51.84
0.4336,-0.0618,0.8381,-2.8458,4.6921,0.0610,22.601042,88.408859,51.58
0.3599,-0.0852,0.8616,-5.1270,9.9411,0.8469,22.600973,88.408745,50.63
0.2725,-0.0508,0.8730,-5.6992,4.8141,1.7471,22.600904,88.408630,50.56
0.3713,-0.1426,0.8354,-3.2730,1.9379,0.3662,22.600838,88.408516,50.56
0.3782,-0.0420,0.9097,-4.0665,1.7014,0.7782,22.600769,88.408394,50.80
0.3450,-0.0229,0.9744,-4.1733,6.1417,-0.3586,22.600704,88.408279,50.95
0.3513,-0.0405,0.8975,-2.4719,0.8163,1.8082,22.600637,88.408165,51.26
0.4580,-0.0813,0.7778,-2.7008,-1.5564,1.5564,22.600573,88.408051,50.45
0.3792,-0.0664,0.8657,-2.0599,1.0605,2.2888,22.600504,88.407936,49.54
0.4626,0.0076,0.9067,-2.2507,-0.4196,1.6708,22.600437,88.407822,49.41
0.3967,-0.0955,0.7612,-2.5940,-1.6022,0.5417,22.600368,88.407715,49.04
0.3594,-0.1191,0.8281,-1.6327,-0.9842,0.6332,22.600302,88.407608,48.15
0.3782,-0.1082,0.8796,-2.5177,3.4103,0.9232,22.600235,88.407494,48.34
0.4272,-0.0095,0.8735,-3.2654,-1.0910,1.2970,22.600172,88.407387,48.17
0.4778,-0.0898,0.9534,-6.4087,2.9755,1.4648,22.600105,88.407280,48.52
0.4417,-0.0781,0.8413,-0.9384,-0.5264,0.6714,22.600040,88.407173,49.17
0.3196,-0.1008,0.8975,-7.2479,12.2452,1.5106,22.599972,88.407059,49.76
0.4250,-0.0835,0.8394,-1.5030,-0.1526,0.2060,22.599903,88.406944,50.32
0.3140,-0.0024,0.7532,-0.6866,-8.2474,0.5417,22.599834,88.406830,50.95
0.3608,-0.0513,0.9680,-2.2964,-0.8621,-0.7324,22.599766,88.406708,50.93
0.2764,-0.0315,0.8064,-2.6474,-0.1068,-0.6332,22.599701,88.406601,49.89
0.2058,0.0508,0.8723,-2.9068,0.0763,1.2283,22.599638,88.406487,47.34
0.2625,-0.0068,0.9646,-2.9907,-4.4632,2.0523,22.599583,88.406387,44.04
0.3843,-0.0078,0.7781,-1.2207,-1.4801,1.3657,22.599529,88.406296,37.67
0.2917,0.0281,0.8293,-2.5253,4.4174,1.1215,22.599482,88.406219,34.93
0.4580,-0.0291,0.8062,-3.8452,0.1755,1.9302,22.599436,88.406136,34.24
0.3906,0.0051,0.8660,-3.4027,2.6855,0.5188,22.599390,88.406067,33.71
0.3662,-0.0164,0.8142,-0.2518,1.3504,0.0610,22.599340,88.405991,34.69
0.5024,-0.0959,0.8879,-3.2120,1.6632,0.0916,22.599289,88.405907,36.28
0.3745,-0.0452,0.8018,-2.7924,-1.9455,0.8850,22.599182,88.405739,39.54
0.3311,-0.0652,0.8853,-3.7689,3.0289,0.1526,22.599129,88.405647,39.63
0.4478,-0.1716,0.8179,-2.6016,-1.4877,1.3580,22.599075,88.405563,39.67
0.4287,-0.0901,0.7852,-1.7014,2.0294,0.5264,22.599022,88.405472,40.74
0.4827,-0.1851,0.8098,-1.9302,-2.3956,0.5951,22.598965,88.405373,42.43
0.5801,-0.2068,0.8401,-5.0354,-2.2507,2.0447,22.598906,88.405273,44.54
0.5151,-0.1030,0.8640,-5.1422,1.8158,1.7319,22.598843,88.405174,46.08
0.4504,-0.0510,0.9417,-5.4855,4.6997,2.2278,22.598778,88.405067,48.21
0.4382,-0.0303,0.8523,-0.0839,-4.4327,1.7090,22.598707,88.404961,50.36
0.5405,-0.1179,0.9246,-6.3705,-1.5640,2.2659,22.598633,88.404846,52.08
0.4365,-0.1138,0.9211,-3.5934,6.5155,0.7782,22.598557,88.404724,52.99
0.4370,-0.0525,0.8738,-3.9520,3.1433,0.3510,22.598480,88.404610,53.71
0.3457,-0.1294,0.8325,-4.0436,-1.3962,0.0687,22.598400,88.404488,55.21
0.4385,-0.0317,0.9949,-2.8000,0.8774,0.6409,22.598326,88.404366,55.56
0.3911,-0.0698,0.8318,-3.1433,1.1063,0.3052,22.598249,88.404236,56.08
0.3955,-0.0505,0.9302,-2.4185,-1.0223,0.0458,22.598175,88.404106,56.34
0.3748,-0.0876,0.8960,-2.1591,3.0289,0.4272,22.598097,88.403984,56.12
0.3760,-0.0383,0.8987,-2.2507,-0.5417,0.0000,22.598026,88.403854,54.89
0.4067,-0.1050,0.9639,-1.6556,-1.0529,0.1526,22.597954,88.403732,53.60
0.3040,0.0569,0.8655,-3.9673,3.7460,0.7858,22.597885,88.403610,50.76
0.3281,-0.0247,0.8477,-3.7460,3.2883,1.6022,22.597820,88.403503,48.54
0.3657,0.0129,0.8259,-1.6327,1.1063,0.3815,22.597757,88.403397,46.82
0.4004,-0.0427,0.8826,-1.9379,-2.3270,-0.2365,22.597698,88.403290,45.39
0.3477,-0.0027,0.9187,-2.2736,0.4807,0.6332,22.597639,88.403191,44.13
0.3772,0.0039,0.7686,-1.6785,-0.3815,0.0153,22.597578,88.403099,42.52
0.3521,-0.0862,0.9080,-2.7695,2.2659,-0.5493,22.597523,88.403000,41.21
0.4128,-0.0601,0.7925,-1.5564,2.0599,0.2441,22.597466,88.402908,40.34
0.3772,-0.1384,0.9336,-3.7308,8.5831,1.8463,22.597414,88.402817,40.17
0.3914,-0.0452,0.8652,-3.2196,0.7401,1.9836,22.597355,88.402725,41.24
0.3916,-0.0496,0.8320,-2.0370,-0.2670,1.3351,22.597303,88.402634,41.78
0.3823,-0.0559,0.9204,-5.1193,2.3651,1.4877,22.597248,88.402534,43.28
0.4089,-0.0864,0.7273,-0.5722,-0.6027,-0.0839,22.597187,88.402435,44.00
0.3481,-0.1973,0.8306,-3.9978,4.5929,-0.2823,22.597124,88.402336,45.13
0.4536,-0.1172,0.7412,-2.2430,1.1368,-0.0305,22.597061,88.402237,46.11
0.4583,-0.0242,0.9385,-3.3798,-3.2196,2.2354,22.596996,88.402130,47.15
0.4263,-0.0696,0.8804,-1.9073,-1.3657,0.6638,22.596933,88.402023,47.87
0.3313,-0.0662,0.7969,-1.1520,-1.4420,-0.0916,22.596872,88.401917,47.52
0.3289,-0.0359,0.9143,-4.1428,3.7308,0.7782,22.596809,88.401810,47.15
0.2598,0.0120,0.8848,-5.5313,3.9291,0.5493,22.596746,88.401703,46.47
0.2878,0.0112,0.8870,-3.0594,4.1580,0.0534,22.596689,88.401604,45.19
0.4287,-0.0303,0.9407,-5.0659,1.0071,1.8845,22.596630,88.401505,42.76
0.3955,-0.0376,0.9116,-4.5853,2.5101,1.4038,22.596575,88.401413,40.45
0.4141,-0.0950,0.9380,-3.3493,5.2109,0.8926,22.596523,88.401321,38.63
0.3181,0.0183,0.7007,-1.7929,-0.5798,1.3199,22.596472,88.401237,37.11
0.3667,-0.1111,0.8503,-2.7237,0.7172,0.4196,22.596426,88.401154,36.04
0.2227,0.0750,0.9126,-2.3651,-1.6937,0.2136,22.596376,88.401077,35.15
0.2671,-0.0078,0.9485,-3.7155,-0.3815,0.7477,22.596334,88.401009,26.98
0.3235,-0.0344,0.9170,-5.4932,-1.3046,1.0757,22.596312,88.400970,14.87
0.2812,-0.0103,0.9067,-3.4409,1.7548,1.0986,22.596298,88.400948,6.89
0.3289,-0.0176,0.8694,-2.4643,2.3346,0.4654,22.596294,88.400940,3.30
0.4060,-0.0466,0.8511,-3.6316,0.6485,1.0452,22.596292,88.400932,1.48
0.3613,-0.0452,0.8323,-2.6703,2.0294,0.6256,22.596291,88.400932,1.17
0.4512,-0.0967,0.8503,-2.7695,2.0905,0.4501,22.596292,88.400932,0.72
0.4915,-0.0964,0.8230,-2.8992,0.0916,0.6027,22.596287,88.400925,0.94
0.4207,-0.1079,0.7886,-2.7008,1.3733,0.8163,22.596287,88.400925,3.30
0.3533,-0.0442,0.8838,-2.3956,1.0757,0.2899,22.596283,88.400909,6.32
0.4873,-0.1028,0.8325,-4.7302,-2.1133,1.5640,22.596273,88.400894,5.09
0.4077,-0.0737,0.8562,-1.7929,2.8458,0.7172,22.596264,88.400887,5.32
0.3555,-0.0134,0.8511,-2.0905,0.1984,1.1063,22.596252,88.400864,8.20
0.5342,-0.1187,0.8936,-3.8452,-0.3815,2.2202,22.596241,88.400848,8.02
0.5220,-0.0879,0.8267,-4.5547,1.4877,1.1520,22.596230,88.400826,9.54
0.3940,0.0161,0.8506,-2.1362,2.6779,-0.4120,22.596209,88.400795,14.70
0.4033,-0.1484,0.8074,-3.8986,1.4343,1.4114,22.596184,88.400764,15.76
0.4050,-0.0337,0.8784,-2.9221,3.3569,2.3117,22.596163,88.400726,16.04
0.5181,-0.1260,0.7803,-1.2131,-0.5188,3.5706,22.596136,88.400688,17.21
0.5059,-0.1150,0.8149,-2.0065,0.2213,5.5313,22.596107,88.400650,18.89
0.4346,-0.0261,0.8486,-1.2283,1.8158,2.7313,22.596073,88.400604,22.39
0.4006,-0.0754,0.8113,0.1450,-2.2507,-1.6403,22.596031,88.400551,23.96
0.5276,0.0300,0.9355,-3.0212,2.9984,-0.7248,22.595984,88.400505,24.35
0.4829,-0.1870,0.8870,-3.1052,0.0610,-1.6098,22.595934,88.400452,26.54
0.5090,-0.1423,0.9016,-4.6234,3.1891,-2.6398,22.595882,88.400398,29.30
0.3503,-0.0869,0.7388,-0.5569,-3.4103,-2.6932,22.595833,88.400330,32.71
0.4285,-0.1526,0.8884,-4.9210,2.1057,3.2578,22.595781,88.400261,34.61
0.3596,-0.1990,0.8003,0.3204,0.4196,-1.3885,22.595728,88.400177,38.37
0.4558,-0.1152,0.9575,-5.1117,-1.0223,2.0370,22.595675,88.400085,39.89
0.3628,-0.0498,0.9536,-5.1041,4.9057,1.8387,22.595617,88.400002,39.65
0.4180,0.1636,1.0173,-4.1199,-0.2213,1.8539,22.595558,88.399910,39.73
0.5237,0.1228,0.7905,-2.8076,2.9144,0.8011,22.595505,88.399826,38.97
0.6758,0.1284,0.9512,-6.1035,26.1536,3.2883,22.595448,88.399742,38.30
0.4314,-0.1702,0.8540,-1.7776,4.0359,2.3193,22.595394,88.399658,37.52
0.5640,-0.2117,0.9043,-0.8087,0.9232,-0.1755,22.595327,88.399582,37.24
0.2852,-0.1929,0.5159,-1.1444,-14.1907,1.0376,22.595270,88.399506,35.61
0.5793,-0.0549,0.5195,-8.9874,-2.8000,3.8757,22.595207,88.399429,36.24
0.0557,-0.0234,0.4646,-5.3253,9.6054,-4.2496,22.595144,88.399361,36.63
0.4619,-0.2891,1.0562,-12.4512,7.3242,-0.5188,22.595078,88.399284,37.69
0.3323,-0.4634,1.1147,-17.9443,-8.5449,13.7024,22.595015,88.399200,38.37
0.7375,0.0398,0.7725,-2.6932,-3.4866,2.5864,22.594959,88.399117,39.32
0.4199,-0.0784,0.4998,3.3340,-13.2446,-1.7548,22.594902,88.399025,39.78
0.6331,-0.1980,0.4700,-1.4572,-9.2773,-1.4343,22.594843,88.398933,40.32
0.4197,-0.2209,0.9048,-3.3875,8.7128,-1.1139,22.594786,88.398849,40.86
0.5325,-0.1829,0.6997,1.2589,-11.3297,-0.8316,22.594728,88.398758,41.17
0.4355,-0.1458,1.0203,-11.9858,17.9062,2.8534,22.594666,88.398659,41.89
0.3413,-0.1060,1.2083,-12.3825,5.7526,3.2043,22.594612,88.398567,40.47
0.4541,-0.0342,0.7791,6.1188,6.6299,-2.2964,22.594553,88.398476,42.39
0.3542,-0.2068,0.6274,-4.7226,-1.6251,1.5793,22.594488,88.398376,43.76
0.4548,0.0374,0.3259,7.9803,25.6729,-9.4604,22.594421,88.398285,44.30
0.4253,-0.1055,1.3032,-13.0234,-12.3367,6.7062,22.594290,88.398087,45.49
0.3792,-0.1113,0.5942,10.5438,24.4827,-2.0370,22.594221,88.397987,45.19
0.5398,-0.1570,0.3940,8.2016,28.0914,-4.2572,22.594158,88.397888,45.06
0.4502,0.1399,1.1528,0.4120,1.5564,2.2583,22.594093,88.397789,45.08
0.4185,-0.2153,0.8931,-3.5172,-9.8801,0.2213,22.594027,88.397682,45.23
0.3835,-0.2458,0.8865,-2.2202,-19.3253,3.7384,22.593960,88.397591,45.19
0.7334,-0.2009,1.0078,-7.2708,-1.9302,3.1433,22.593893,88.397491,45.58
0.5178,0.0583,0.7400,2.6093,-2.0523,-1.7395,22.593828,88.397385,45.69
0.3208,-0.1282,0.8281,-2.9678,4.7760,0.3967,22.593765,88.397285,45.93
0.5557,-0.2471,0.9194,-0.5722,8.3389,-0.2365,22.593699,88.397186,46.24
0.3657,-0.0759,0.9910,-5.3787,5.1270,1.6098,22.593632,88.397079,46.78
0.4565,-0.1370,0.5981,1.7166,-2.3880,-1.2436,22.593563,88.396980,47.19
0.4199,0.0293,0.9075,-3.3951,0.3204,1.0681,22.593494,88.396873,47.71
0.3372,-0.1121,0.7134,-0.9384,-5.1498,-0.2441,22.593426,88.396767,47.91
0.4558,-0.0532,0.8105,3.8834,-4.2648,-1.1444,22.593359,88.396660,47.78
0.3862,-0.1299,0.8420,-3.6621,4.0817,2.5482,22.593290,88.396561,47.54
0.5554,-0.1763,1.0063,-1.3351,-1.0376,-1.5411,22.593222,88.396454,47.65
0.4160,-0.1943,0.9873,-6.2790,-4.1428,3.3340,22.593155,88.396347,47.67
0.4373,0.0742,0.7144,-0.9537,6.1111,1.2207,22.593086,88.396240,47.56
0.3608,-0.2512,0.7346,-4.6082,-4.7531,1.9226,22.593019,88.396141,47.30
0.3152,-0.1699,0.8091,-6.9656,1.8997,2.7084,22.592951,88.396034,46.15
0.3625,-0.0286,1.0059,-6.1951,14.0686,1.2817,22.592886,88.395943,44.21
0.3860,0.0383,0.7727,-2.0828,-2.9297,1.6937,22.592827,88.395851,40.76
0.3633,0.0500,0.9485,-4.1656,-1.4420,2.9678,22.592770,88.395767,36.87
0.1143,0.1436,0.9905,-0.3510,-0.3738,4.2038,22.592714,88.395699,33.80
0.5774,0.1521,0.9355,-0.2747,3.1357,4.4861,22.592659,88.395638,31.30
0.4626,-0.0168,1.0610,-5.5466,1.0681,5.4779,22.592600,88.395584,29.87
0.1528,0.0857,0.9880,1.5640,-2.8992,7.4005,22.592543,88.395531,28.41
0.4478,-0.2495,0.8647,-2.5558,-9.0714,11.8790,22.592484,88.395493,28.24
0.3967,-0.0212,1.0483,-2.4490,-1.9684,7.8125,22.592419,88.395462,28.58
0.5986,-0.1897,0.8193,-1.0071,-1.2894,10.7117,22.592352,88.395432,29.93
0.4236,-0.0615,0.7410,4.3793,8.0795,6.1035,22.592279,88.395416,31.08
0.4385,-0.0876,0.9490,1.3351,1.2970,7.1716,22.592205,88.395409,31.13
0.4824,-0.1301,0.8276,-2.8610,-8.8730,12.3444,22.592133,88.395416,30.21
0.5977,0.0037,0.7183,1.5564,5.3864,8.0872,22.592056,88.395439,32.10
0.6104,-0.0500,0.7358,-1.2054,4.1885,5.5695,22.591978,88.395470,34.30
0.4421,0.0139,0.7830,2.6093,-4.4785,1.1902,22.591896,88.395515,36.82
0.3411,0.0171,0.6809,-0.2213,2.8076,2.0981,22.591812,88.395569,38.80
0.4048,-0.0588,0.7705,-2.6932,-0.2518,1.4496,22.591726,88.395622,40.73
0.4585,-0.0662,0.8943,-1.5182,5.7449,1.6632,22.591637,88.395691,42.65
0.5911,-0.1746,1.0769,-3.6850,0.4425,0.2747,22.591549,88.395760,43.45
0.4087,-0.1418,0.6111,1.1978,-7.5378,-0.4272,22.591461,88.395821,43.37
0.4373,-0.1465,0.7195,-1.9760,-1.7548,1.1902,22.591368,88.395889,43.73
0.3638,-0.0693,0.7825,-4.6082,3.4561,0.6027,22.591278,88.395958,44.65
0.3284,-0.0549,0.8689,-2.6550,4.7836,-0.0992,22.591187,88.396027,45.74
0.5217,-0.0603,0.6602,-1.6479,9.6970,-2.4490,22.591091,88.396103,46.91
0.3953,-0.1929,0.9170,-2.6855,-2.5177,0.5188,22.590990,88.396172,48.24
0.4092,-0.0989,0.9712,-8.1100,-8.1863,-0.6180,22.590885,88.396240,49.08
0.4023,-0.1213,0.8792,-0.0763,0.9842,-1.8921,22.590775,88.396301,49.74
0.4165,-0.0886,0.3745,4.1809,6.8512,-4.9438,22.590664,88.396370,50.32
0.2927,-0.0908,1.0071,-6.0959,8.7280,-0.3586,22.590548,88.396431,50.52
0.4492,-0.2273,1.0437,-7.0267,-2.9831,2.3193,22.590433,88.396484,50.89
0.3867,-0.3154,1.0483,-5.6763,-0.2823,3.5782,22.590313,88.396538,51.71
0.3123,0.0015,0.8611,-3.4485,0.4120,0.1450,22.590195,88.396584,51.73
0.4595,0.0603,0.7314,-1.0071,2.7084,-0.5341,22.590075,88.396637,52.21
0.6394,-0.1711,0.8823,-8.8730,4.4861,3.8910,22.589951,88.396690,52.41
0.3154,-0.0559,0.8728,-1.4343,8.2474,-0.1526,22.589827,88.396736,53.06
0.3452,-0.3606,0.4541,0.3433,-7.1411,0.2441,22.589705,88.396790,52.54
0.3867,0.0256,0.9646,-3.0289,6.2485,0.1373,22.589582,88.396843,51.97
0.4526,-0.0747,0.8333,-3.7689,3.1128,-0.9537,22.589462,88.396896,52.30
0.3289,-0.1494,1.1614,-9.3231,2.8687,1.9684,22.589338,88.396942,52.91
0.4006,0.0481,0.8398,-5.0049,19.3939,-1.5564,22.589214,88.396996,53.91
0.3804,-0.0156,0.9377,-2.3270,6.9733,2.1286,22.589088,88.397049,54.69
0.3159,-0.0950,1.0100,-2.5253,-5.6000,2.6169,22.588959,88.397095,54.99
0.1924,0.0693,0.5840,-2.8687,14.0991,1.3046,22.588829,88.397148,56.04
0.4697,-0.0400,0.4204,7.7896,-10.0327,-1.2207,22.588701,88.397209,55.89
0.1907,0.0647,0.7012,-2.4948,2.7542,0.7401,22.588568,88.397270,55.47
0.4221,-0.1870,0.8430,2.0676,-17.7612,-1.2054,22.588436,88.397331,55.87
0.4204,-0.0256,1.0156,-5.1651,-0.9842,0.6332,22.588310,88.397400,54.41
0.3909,-0.1333,0.9119,-5.8136,3.9520,1.8845,22.588182,88.397453,53.63
0.4216,0.0012,0.8103,-5.8594,10.0632,0.8469,22.588060,88.397522,52.89
0.3022,0.0298,0.9841,-3.6316,0.7324,1.1292,22.587936,88.397583,52.63
0.1013,0.1721,0.9653,-4.6310,9.9030,1.8768,22.587816,88.397636,51.58
0.4685,-0.2363,0.8699,-12.7487,13.0539,4.2419,22.587696,88.397697,50.82
0.0955,-0.1252,0.9094,3.6621,-8.1863,-2.1286,22.587580,88.397751,48.84
0.4917,0.0586,1.0767,-3.8071,8.5068,1.6174,22.587467,88.397812,49.19
0.3940,0.1450,0.6194,0.4883,29.2282,-0.6332,22.587349,88.397865,49.99
0.3447,-0.0195,0.7781,-1.9073,-5.3711,2.5406,22.587236,88.397926,50.02
-0.0657,0.1038,0.8567,2.5711,4.9438,-1.7929,22.587120,88.397987,50.37
0.4893,0.0591,0.9519,-2.0218,14.7324,-2.2736,22.587004,88.398048,49.63
0.3474,-0.1707,0.9617,-6.5002,18.7607,-1.4725,22.586893,88.398109,48.73
0.0759,-0.1589,0.7537,-2.9907,-5.5695,0.7935,22.586788,88.398170,47.08
0.4504,-0.3022,0.7854,2.8915,-21.5759,1.3733,22.586685,88.398232,45.04
0.0618,0.1621,0.8799,4.0131,-23.9029,-1.1444,22.586588,88.398285,43.61
0.5071,-0.1172,0.7549,0.2213,-4.5853,0.9613,22.586496,88.398346,41.61
0.1753,-0.0322,1.3584,2.0599,16.0675,-0.6180,22.586407,88.398399,38.65
0.4492,-0.1541,0.5522,-1.0834,-7.4463,0.3128,22.586323,88.398445,37.00
0.4026,0.0364,0.7300,1.5488,6.6681,-2.2125,22.586241,88.398499,36.11
0.5615,0.0317,0.8635,-3.6392,-4.2725,2.6855,22.586168,88.398552,33.84
0.2859,0.4109,0.9797,5.2490,6.3629,-3.3112,22.586102,88.398598,33.02
0.2058,-0.1233,0.7175,-8.3466,0.1221,1.2894,22.586039,88.398643,31.21
0.3176,-0.1516,0.7690,-1.1139,10.1547,-6.8130,22.585978,88.398682,29.35
0.4062,-0.2146,0.6938,-6.2485,1.8387,-1.8082,22.585911,88.398720,28.76
0.5630,-0.0923,1.0850,-5.1422,-3.5782,0.0229,22.585844,88.398758,30.76
0.3606,0.0811,0.7732,-3.4714,3.7994,-0.8011,22.585770,88.398796,32.39
0.6306,0.2668,0.9084,-8.4229,27.4887,-15.0375,22.585695,88.398834,32.78
0.9175,-0.1963,0.8005,-7.5378,-7.1869,2.7390,22.585617,88.398872,34.10
0.3562,-0.1873,0.6731,-5.2948,-23.6359,3.7766,22.585539,88.398903,34.65
0.5659,-0.1421,0.9124,-0.1297,-8.6060,-0.6485,22.585459,88.398941,35.34
0.5842,-0.0444,1.1206,-0.3510,-13.8702,0.6104,22.585297,88.399017,36.41
0.2136,-0.1045,0.8562,-5.1193,6.8741,2.4185,22.585211,88.399055,36.95
0.3457,-0.1279,0.8044,-3.9597,2.6474,2.5635,22.585127,88.399094,36.08
0.5940,-0.0723,1.2261,-23.2010,-14.4424,11.0092,22.585051,88.399124,33.63
0.2773,-0.0469,0.9329,-5.0278,2.9526,1.9684,22.584984,88.399162,29.37
0.4805,-0.0361,0.7859,-3.7689,1.2283,0.3128,22.584925,88.399185,25.91
0.2122,-0.0508,0.8770,-1.5869,5.1498,0.2365,22.584875,88.399216,21.34
0.1636,-0.0408,0.8706,-3.2043,0.5264,2.6093,22.584829,88.399231,18.83
0.2778,0.0503,0.8867,-2.4948,2.8152,0.8850,22.584793,88.399246,13.43
0.3455,0.0579,0.8818,-2.1820,0.7629,0.4959,22.584772,88.399261,8.72
0.3525,-0.0156,0.9241,-1.0071,2.3575,0.3586,22.584761,88.399261,4.98
0.2874,-0.0054,0.9568,-4.4174,0.4578,1.2436,22.584751,88.399277,3.93
0.3975,-0.0725,0.8667,-3.0975,1.4267,0.9232,22.584749,88.399277,0.57
0.4197,-0.0803,0.8555,-3.2349,0.6714,1.0300,22.584747,88.399277,0.56
0.4111,-0.0598,0.8708,-3.1662,0.5112,0.9613,22.584747,88.399277,0.39
0.3936,-0.0645,0.8503,-3.1052,-0.5646,1.2360,22.584747,88.399277,0.80
0.3970,-0.0637,0.8391,-3.0975,0.0305,0.8392,22.584749,88.399284,0.26
0.3972,-0.0613,0.8562,-3.1433,-0.2747,1.1520,22.584751,88.399284,0.22
0.4097,-0.0630,0.8850,-2.8152,1.4572,0.6866,22.584755,88.399292,0.20
0.3962,-0.0796,0.8484,-2.6398,2.0981,0.5341,22.584757,88.399292,0.26
0.3994,-0.0752,0.8157,-2.8534,-0.1755,0.4883,22.584761,88.399292,0.37
0.4829,-0.0046,0.9028,0.0610,15.7547,-1.5640,22.584763,88.399300,0.30
0.3918,-0.0796,0.8477,-3.4180,1.8692,0.9232,22.584764,88.399300,0.22
0.3940,-0.0708,0.8452,-2.9144,0.9003,0.5493,22.584768,88.399300,0.22
0.4199,-0.0659,0.8638,-3.0746,1.4267,0.8087,22.584772,88.399300,0.28
0.4250,-0.0515,0.8987,-3.0975,1.2970,0.9232,22.584776,88.399300,0.22
0.4006,-0.0596,0.8337,-3.2883,-1.9302,1.3733,22.584780,88.399300,0.09
0.3799,-0.0559,0.8245,-2.8915,-1.2894,0.6866,22.584787,88.399300,0.22
0.3621,-0.0576,0.7979,-2.4643,-0.5188,0.8621,22.584791,88.399307,0.17
0.3806,-0.0735,0.8171,-2.6321,0.4654,0.4883,22.584795,88.399307,0.02
0.4060,-0.0793,0.8274,-2.5482,0.4883,0.5493,22.584799,88.399307,0.09
0.4102,-0.0767,0.8459,-2.4567,1.8234,0.5875,22.584803,88.399307,0.30
0.3933,-0.0571,0.8538,-3.1509,-0.1297,1.0376,22.584808,88.399315,0.13
0.4233,-0.0723,0.8928,-2.8534,1.1597,0.7706,22.584814,88.399315,0.30
0.4165,-0.0850,0.8455,-2.9526,0.9460,0.7095,22.584814,88.399315,0.02
0.3901,-0.0681,0.8535,-2.6932,1.0681,0.2594,22.584814,88.399315,0.04
0.4109,-0.0713,0.8579,-3.5172,-0.6332,1.0605,22.584814,88.399315,0.17
0.4153,-0.0740,0.8652,-2.5711,2.2278,0.5951,22.584812,88.399315,0.15
0.4116,-0.0603,0.8621,-2.9907,0.7782,0.8774,22.584810,88.399315,0.13
0.4058,-0.0769,0.8467,-3.0746,0.5493,0.8240,22.584812,88.399315,0.02
0.3926,-0.0627,0.8477,-3.4256,0.5112,0.8392,22.584812,88.399307,0.61
0.4094,-0.0728,0.8687,-3.2043,1.0681,0.9003,22.584810,88.399307,0.11
0.4041,-0.0610,0.8547,-3.3646,-0.3281,0.9155,22.584812,88.399307,0.17
0.4070,-0.0618,0.8560,-2.6932,0.9003,0.6943,22.584812,88.399307,0.04
0.4131,-0.0625,0.8633,-3.1281,0.8469,0.7629,22.584814,88.399307,0.07
0.3948,-0.0701,0.8501,-3.2272,0.5264,0.6561,22.584816,88.399307,0.65
0.3950,-0.0684,0.8203,-2.8152,0.0305,0.8316,22.584816,88.399307,0.04
0.3933,-0.0803,0.8396,-2.5787,1.1215,0.5646,22.584814,88.399307,0.02
0.4116,-0.0857,0.8450,-2.8458,0.9918,0.9232,22.584814,88.399307,0.04
0.3899,-0.0796,0.8286,-2.6169,0.9155,0.3891,22.584814,88.399307,0.20
0.4236,-0.0676,0.8975,-3.3722,0.7706,1.2360,22.584816,88.399307,0.02
0.4194,-0.0757,0.8665,-2.2202,1.4267,0.4807,22.584814,88.399307,0.19
0.3928,-0.0676,0.8323,-2.8992,-0.9155,0.9384,22.584814,88.399307,0.17
0.4031,-0.0754,0.8540,-2.5482,1.6556,0.5264,22.584814,88.399307,0.09
0.4385,-0.0708,0.8838,-2.8229,-0.2823,0.8469,22.584812,88.399307,0.13
0.4805,-0.1399,0.8403,-2.4872,1.1978,0.5264,22.584812,88.399307,0.30
0.5054,-0.1665,0.8789,-1.7624,1.9302,1.5106,22.584806,88.399307,2.02
0.6143,-0.0791,0.7566,-1.9531,-0.4272,1.6479,22.584791,88.399307,5.74
0.4185,0.0491,0.9768,-2.0752,3.8528,-0.5798,22.584772,88.399315,7.46
0.3848,-0.0950,0.8381,-0.9613,0.8011,0.0000,22.584745,88.399323,11.09
0.4951,-0.0891,0.8523,-1.0300,-4.1809,-1.0986,22.584717,88.399338,12.72
0.3772,-0.0645,0.8616,-3.3569,-0.4120,0.8926,22.584677,88.399353,17.04
0.4417,-0.0034,0.9045,-2.4109,0.1602,0.9384,22.584635,88.399376,18.06
0.3066,-0.0195,0.9280,-2.7008,5.5161,1.5640,22.584595,88.399391,17.78
0.4695,0.0010,0.8423,-3.7460,-0.1755,1.6174,22.584553,88.399414,17.61
0.4360,-0.0098,0.8330,-0.4807,1.4496,1.1902,22.584507,88.399429,17.93
0.4241,-0.0317,0.7681,-3.3035,1.2512,1.8387,22.584465,88.399452,17.85
0.4675,-0.0166,0.9260,-2.2736,1.7471,0.4730,22.584421,88.399475,17.98
0.4929,-0.0742,0.7595,-2.7390,-2.9602,0.4807,22.584377,88.399498,17.95
0.4897,-0.0823,0.8599,-2.3956,-2.9526,-2.2888,22.584333,88.399521,18.83
0.4448,-0.2253,0.7810,-0.7248,-3.4943,-2.2278,22.584284,88.399544,21.32
0.3784,-0.0320,0.8230,-0.6027,5.2795,-0.0534,22.584232,88.399567,22.95
0.5229,-0.1150,0.7795,-4.1809,-4.2419,1.6174,22.584179,88.399590,23.13
0.4424,0.0017,0.9517,-2.6245,3.3646,0.1144,22.584122,88.399605,23.74
0.4639,-0.0181,0.8638,-2.7542,-1.8539,1.7242,22.584063,88.399628,25.28
0.4221,-0.0305,0.8174,-1.0071,1.1063,1.0910,22.584003,88.399651,25.91
0.4341,0.0435,0.7090,2.7084,7.4921,-0.8545,22.583941,88.399673,25.80
0.4617,-0.0283,0.9402,-4.0436,2.3041,1.2512,22.583879,88.399704,25.58
0.3477,0.0261,0.8257,-3.2272,-0.1602,-0.1907,22.583817,88.399727,26.56
0.5564,-0.2078,0.8413,-7.6752,-6.4621,3.3646,22.583754,88.399757,26.74
0.2971,-0.0762,1.0063,-5.0888,2.1973,1.6022,22.583693,88.399780,26.52
0.2334,-0.1340,0.6746,-2.0523,1.3428,2.1973,22.583628,88.399811,27.63
0.3884,-0.0720,1.0850,-15.0070,3.0365,6.5994,22.583561,88.399841,28.22
0.1501,-0.1985,0.4634,3.5706,-7.2632,-0.6104,22.583492,88.399872,29.35
0.6033,-0.2012,0.7917,-4.1351,-4.0436,-0.4959,22.583424,88.399902,30.67
0.4885,-0.0947,0.9214,-2.9526,2.7008,0.3662,22.583349,88.399933,32.22
0.4485,-0.0308,0.7300,1.6632,-2.5558,-0.4883,22.583273,88.399971,33.78
0.5242,-0.2437,0.9443,-3.4332,3.7613,1.7700,22.583195,88.400009,35.23
0.1306,-0.0576,0.8523,-6.4011,6.3629,1.4801,22.583111,88.400047,36.54
0.5312,-0.0100,0.9131,-2.5711,0.9232,0.1984,22.583025,88.400093,37.69
0.3171,-0.0454,0.7231,-3.9215,2.6855,2.0065,22.582935,88.400131,38.19
0.5076,0.0291,0.8572,-0.4807,11.6196,1.0300,22.582850,88.400169,37.78
0.4153,0.0715,0.8291,-1.7242,1.4648,0.3357,22.582762,88.400215,36.98
0.0566,-0.0049,0.9954,-3.5553,3.4256,1.3580,22.582678,88.400253,37.45
0.4490,-0.1406,0.9158,-4.6310,2.7466,0.6104,22.582594,88.400299,37.58
0.5581,-0.1816,0.9426,-4.0359,1.9379,0.4349,22.582508,88.400345,38.50
0.4089,-0.0195,0.8735,-2.4033,1.8845,1.8082,22.582418,88.400391,39.48
0.5002,-0.0605,0.7766,-0.1526,1.2436,-0.3967,22.582327,88.400436,40.21
0.5227,0.0422,0.9036,-2.2736,-1.5182,0.1297,22.582233,88.400482,41.23
0.3633,-0.1521,0.9402,-2.8610,-0.4578,2.1286,22.582138,88.400528,41.28
0.4653,-0.0430,1.0247,-5.9204,2.7695,1.5182,22.582047,88.400574,39.56
0.5005,-0.0415,0.9902,-2.5482,1.9226,1.3809,22.581957,88.400620,38.58
0.2971,0.1106,0.8628,-2.0142,-1.9760,0.2289,22.581797,88.400703,33.15
0.3154,0.0117,0.8547,-1.9989,2.3804,-0.0534,22.581724,88.400742,31.00
0.3645,0.0757,0.9631,-4.6539,1.4496,0.7172,22.581659,88.400772,27.93
0.3108,-0.0369,0.8020,-3.3493,1.2741,0.3204,22.581606,88.400810,22.45
0.3816,-0.0942,0.8477,-2.8458,1.4420,1.4038,22.581558,88.400833,20.89
0.2666,0.0266,0.7896,-1.0910,-1.2283,0.8240,22.581512,88.400856,19.45
0.3445,0.0061,0.9441,-2.6398,3.7003,0.7401,22.581472,88.400871,16.26
0.3149,-0.0615,0.9199,-4.1885,0.6561,1.2589,22.581442,88.400887,11.54
0.4075,-0.0352,0.9084,-2.0065,0.9689,0.1755,22.581421,88.400902,8.30
0.4287,-0.0356,0.8965,-2.9449,-1.3199,1.5030,22.581402,88.400909,7.37
0.4866,-0.0994,0.8228,-2.5253,-2.3727,1.6861,22.581385,88.400917,7.02
0.4004,0.0164,0.9031,-4.0970,7.4081,1.1749,22.581362,88.400925,8.95
0.4211,-0.0781,0.8567,-3.3875,1.8158,1.1063,22.581337,88.400940,11.07
0.3120,-0.0017,0.8716,-1.1597,2.8000,1.8158,22.581308,88.400955,12.45
0.3994,-0.0344,0.8699,-2.4414,0.8240,2.4109,22.581282,88.400970,10.93
0.4465,-0.0859,0.8740,-2.5711,0.0916,2.1973,22.581255,88.400986,10.17
0.4836,-0.1177,0.8452,-1.9913,-2.2964,0.8545,22.581230,88.400993,10.69
0.4065,-0.0142,0.8845,-3.4790,0.8163,0.9384,22.581203,88.401009,11.35
0.4817,-0.1018,0.8630,-4.0512,-0.2365,2.1591,22.581182,88.401016,9.39
0.4124,-0.0417,0.8340,-3.9139,1.5793,0.7553,22.581161,88.401024,9.15
0.4214,-0.0625,0.9028,-3.5706,5.1956,0.8011,22.581139,88.401039,9.70
0.3899,-0.0706,0.7693,-5.3787,4.1504,1.0071,22.581116,88.401047,10.06
0.4150,-0.1550,1.0554,-8.0261,1.4877,2.0828,22.581091,88.401062,10.30
0.3452,0.0737,0.8992,-1.3733,2.8992,-2.2202,22.581070,88.401077,9.39
0.1982,-0.1262,1.0823,-7.7515,8.3542,0.6790,22.581049,88.401085,8.61
0.3267,0.0015,0.7161,-0.8698,4.5013,-0.5875,22.581028,88.401093,8.13
0.4382,-0.0579,0.9265,-3.6697,3.8986,0.5493,22.581017,88.401093,4.78
0.4282,-0.0620,0.7842,-4.1199,-2.3956,1.1597,22.581007,88.401108,4.15
0.3809,-0.0627,0.7588,-1.2741,-0.9613,0.0839,22.580988,88.401115,7.56
0.4287,-0.0400,0.8794,-2.8839,-0.0458,0.9384,22.580963,88.401123,11.15
0.4138,-0.0503,0.7322,-1.6403,3.4714,-0.7858,22.580938,88.401138,10.20
0.3765,-0.0859,0.9624,-5.6076,0.3967,-0.6943,22.580906,88.401161,15.50
0.4836,-0.1091,0.9734,-3.9520,3.5019,-2.4567,22.580885,88.401192,14.85
0.4094,-0.1055,0.8818,-0.5035,-0.8316,-2.2736,22.580870,88.401207,5.93
0.5686,-0.1733,0.8235,-1.9989,-2.8763,0.3204,22.580854,88.401222,10.15
0.4187,-0.1416,0.8855,-2.4490,2.0142,-0.5112,22.580818,88.401237,12.35
0.5986,-0.1084,0.8433,1.5030,-1.0834,0.0458,22.580784,88.401253,12.91
0.3872,-0.0842,0.8784,3.4256,3.6850,2.7924,22.580740,88.401260,15.76
0.5146,0.0337,0.8188,-0.6027,0.1144,0.4807,22.580713,88.401276,13.04
0.4360,-0.0872,0.8979,-3.2425,-0.4349,-0.4425,22.580662,88.401299,18.24
0.4580,-0.0273,0.7292,0.8240,-7.7591,-0.6943,22.580612,88.401321,19.43
0.5603,0.0937,0.7461,-2.9907,2.6093,0.1068,22.580553,88.401344,21.82
0.3186,-0.1270,0.9114,-1.8158,-1.4877,-0.1144,22.580498,88.401367,21.39
0.4756,-0.1150,0.6577,-1.2817,-2.2202,-1.1292,22.580423,88.401405,26.69
0.4197,-0.0901,0.6030,3.4027,-6.5918,-3.5248,22.580374,88.401413,20.95
0.3132,-0.0278,0.8062,3.3493,-5.2643,-2.8305,22.580345,88.401421,15.06
0.3384,-0.1030,0.9561,-4.2343,1.9531,1.3428,22.580307,88.401436,14.43
0.2715,-0.0193,0.7312,-1.6479,2.9678,-3.1281,22.580177,88.401436,25.45
0.5405,-0.0532,0.7163,-0.7706,37.5061,-1.8005,22.580082,88.401443,25.95
0.3899,0.0337,0.9368,2.8763,-3.4485,-1.5259,22.579817,88.401398,32.17
0.3672,0.0288,0.7053,0.1297,4.9362,-0.5188,22.579605,88.401428,36.19
0.3796,0.0476,0.8806,-3.5706,4.0970,2.2888,22.579473,88.401497,37.02
0.3809,0.1575,0.9551,-7.4768,-2.9526,2.2049,22.579346,88.401535,38.47
0.5117,-0.0605,0.7517,-0.9613,2.3117,0.4349,22.579214,88.401588,39.43
0.3987,-0.0007,0.9097,-1.5564,6.9656,0.1907,22.579094,88.401619,40.71
0.5073,-0.0359,1.0288,-5.0125,-4.9973,2.0828,22.578979,88.401657,40.47
0.2461,-0.0913,1.0679,-5.3024,9.3460,1.1292,22.578871,88.401688,39.74
0.4143,-0.0957,0.8865,-2.6093,2.5024,1.0986,22.578760,88.401726,40.06
0.4729,-0.0156,0.7920,-3.5400,-1.0986,0.4349,22.578657,88.401756,39.73
0.3030,-0.0798,1.0291,-2.4414,9.3918,-0.1678,22.578556,88.401787,40.28
0.4285,-0.1121,0.4277,6.6833,-3.6850,-1.6556,22.578453,88.401817,40.45
0.5254,0.0042,0.7581,2.7237,-3.1281,-0.9003,22.578352,88.401848,41.04
0.0491,-0.0620,1.1145,-6.8436,-7.3700,5.5313,22.578247,88.401878,41.80
0.3770,-0.0757,0.7327,-5.0583,0.1831,2.5787,22.578142,88.401901,42.61
0.4717,0.0803,0.7095,-1.6556,-0.1144,-0.9766,22.578033,88.401932,43.28
0.3721,-0.1196,0.8472,-3.1509,-4.5166,3.4180,22.577925,88.401962,43.76
0.4531,-0.1013,0.9221,-7.0724,0.0076,2.2278,22.577816,88.401993,44.04
0.4062,0.0256,0.9509,-3.8605,-8.1024,1.9836,22.577703,88.402023,44.49
0.3464,-0.0862,0.7908,-1.2589,-0.3815,-0.2441,22.577595,88.402054,44.87
0.6296,0.0078,0.9421,-2.9068,-2.3117,-0.0839,22.577484,88.402084,45.17
0.5000,-0.0217,0.8831,-6.5308,9.8495,1.4191,22.577374,88.402115,44.93
0.3848,-0.0696,0.7100,-0.2289,4.4708,0.4730,22.577265,88.402153,44.97
0.3809,-0.0500,0.8701,-7.3318,9.4147,1.3199,22.577152,88.402184,45.32
0.3604,-0.1333,0.7107,-2.9144,-2.8687,-0.2365,22.577044,88.402214,44.80
0.4343,-0.0918,0.9866,-10.4370,6.0806,4.2877,22.576931,88.402237,45.10
0.2742,0.0178,0.9102,-1.4725,-0.8469,-1.9150,22.576822,88.402260,44.50
0.2275,-0.1145,0.8425,-2.0981,-0.8774,0.6638,22.576712,88.402290,44.10
0.4687,0.0476,0.8245,-8.3008,0.4578,2.5864,22.576605,88.402321,42.21
0.1458,0.0779,1.0259,-9.2621,6.2180,1.7776,22.576500,88.402344,42.61
0.5901,0.0488,0.8564,-3.7613,13.8779,-0.3128,22.576397,88.402367,40.95
0.2563,-0.0425,0.9548,-3.4180,4.9744,1.7395,22.576298,88.402390,38.11
0.5154,-0.0078,0.9880,-4.2343,3.1815,2.3956,22.576210,88.402412,35.61
0.4504,0.0588,0.9539,-4.0665,3.9291,1.1978,22.576126,88.402435,33.71
0.3916,-0.1172,0.6692,-1.5488,-4.0283,-1.3504,22.576050,88.402458,30.39
0.3606,-0.0046,0.9897,-4.4632,-1.5793,2.9755,22.575979,88.402473,28.35
0.3499,0.0427,0.8525,-1.0529,-5.4626,0.3738,22.575914,88.402489,25.76
0.2651,0.0212,0.9890,-2.1210,2.3117,1.6479,22.575853,88.402504,22.91
0.3330,0.0168,0.8496,-0.9003,1.3504,1.9226,22.575808,88.402512,17.63
0.4072,-0.0361,0.8838,-2.8687,0.6409,1.2283,22.575775,88.402519,11.63
0.3958,-0.0132,0.8628,-1.5259,1.1826,0.7324,22.575754,88.402527,7.95
0.3799,-0.0425,0.9119,-3.3875,0.8087,1.5717,22.575735,88.402519,7.17
0.3918,-0.0249,0.8730,-2.7313,0.9460,1.0986,22.575708,88.402519,4.30
0.3892,-0.0312,0.8591,-3.7079,-0.4272,0.7477,22.575697,88.402527,3.91
0.3633,-0.0259,0.8792,-2.9144,-0.3891,-0.3586,22.575687,88.402527,3.74
0.4026,-0.0076,0.8843,-3.1204,1.1749,1.3046,22.575678,88.402534,3.91
0.4224,-0.0591,0.8557,-2.5024,0.7401,4.2572,22.575670,88.402534,3.37
0.3889,-0.0410,0.8445,-3.0365,1.6403,2.8992,22.575663,88.402534,2.65
0.3726,-0.0188,0.8823,-2.9907,2.5177,1.0986,22.575657,88.402534,1.50
0.3999,-0.0442,0.8557,-3.0670,0.6256,0.7019,22.575657,88.402534,0.57
0.4250,-0.0479,0.8645,-3.0441,1.0071,1.1749,22.575655,88.402542,0.26
