ax, ay, az, gx, gy, gz, lat, lng, speed
0.2556,0.3518,0.6702,-9.2010,36.0413,159.9197,0.000000,0.000000,0.00
-0.3726,0.1296,0.7642,-157.0358,-5.9357,130.1804,0.000000,0.000000,0.00
-0.3618,0.1497,1.1951,-33.5999,-16.6855,-14.1830,0.000000,0.000000,0.00
-0.0432,0.1370,0.9290,-5.4855,2.4490,-0.0381,0.000000,0.000000,0.00
-0.0479,0.0645,0.9290,-2.0294,1.3199,-0.2441,0.000000,0.000000,0.00
-0.1096,0.0466,0.9404,-3.3569,8.7051,-2.3880,0.000000,0.000000,0.00
-0.0796,0.0410,0.9072,0.1984,0.8545,0.9995,0.000000,0.000000,0.00
-0.0957,0.0303,0.9080,-7.4310,27.4582,8.2932,0.000000,0.000000,0.00
-0.1387,-0.0076,0.9536,-2.0523,16.1591,-0.3510,0.000000,0.000000,0.00
-0.0779,0.0261,0.9397,-4.3793,1.3733,1.3733,0.000000,0.000000,0.00
-0.1230,0.0203,0.9246,-2.9602,0.3967,1.0147,0.000000,0.000000,0.00
-0.1440,0.0388,0.9651,-2.2964,3.4256,1.1063,0.000000,0.000000,0.00
-0.1006,0.0479,0.9246,-2.8381,0.8087,0.9689,0.000000,0.000000,0.00
-0.0994,0.0457,0.9197,-2.8687,1.0300,0.7019,0.000000,0.000000,0.00
-0.1147,0.0359,0.9182,-2.7161,0.7858,0.8698,0.000000,0.000000,0.00
-0.0718,0.0850,0.8997,-2.6474,2.2049,0.7629,0.000000,0.000000,0.00
-0.1140,0.0422,0.9309,-2.8000,0.7401,0.7706,0.000000,0.000000,0.00
-0.1128,0.0483,0.9336,-2.7618,0.7248,0.9308,0.000000,0.000000,0.00
-0.1135,0.0515,0.9270,-2.6627,0.8240,0.9918,0.000000,0.000000,0.00
-0.1060,0.0457,0.9255,-2.8992,0.6943,0.9689,0.000000,0.000000,0.00
-0.1140,0.0403,0.9258,-2.7924,0.7477,0.7629,0.000000,0.000000,0.00
-0.1106,0.0374,0.9272,-2.8305,0.6561,0.7477,0.000000,0.000000,0.00
-0.1189,0.0410,0.9119,-2.6550,0.6104,0.7172,0.000000,0.000000,0.00
-0.1094,0.0430,0.9185,-2.8687,0.6409,0.8774,0.000000,0.000000,0.00
-0.1130,0.0449,0.9255,-2.8610,0.7172,0.9995,0.000000,0.000000,0.00
-0.1125,0.0457,0.9268,-2.6855,0.6256,0.8545,0.000000,0.000000,0.00
-0.1086,0.0432,0.9272,-2.7618,0.7706,0.9232,0.000000,0.000000,0.00
-0.1162,0.0444,0.9314,-2.7313,0.8087,0.7629,0.000000,0.000000,0.00
-0.1096,0.0425,0.9236,-2.7390,0.7172,0.7172,0.000000,0.000000,0.00
-0.1177,0.0479,0.9292,-2.9144,0.7935,0.9308,0.000000,0.000000,0.00
-0.1108,0.0417,0.9287,-2.6550,0.6332,0.8392,0.000000,0.000000,0.00
-0.1091,0.0442,0.9277,-2.8076,0.6256,0.8240,0.000000,0.000000,0.00
-0.1140,0.0415,0.9192,-2.7237,0.6332,0.8392,0.000000,0.000000,0.00
-0.1143,0.0427,0.9131,-2.7924,0.7324,0.8163,0.000000,0.000000,0.00
-0.1113,0.0430,0.9241,-2.8152,0.9003,0.9537,0.000000,0.000000,0.00
-0.1099,0.0544,0.9351,-2.7618,0.6866,0.6714,0.000000,0.000000,0.00
-0.1118,0.0491,0.9272,-2.7390,0.7095,0.6104,0.000000,0.000000,0.00
-0.1123,0.0425,0.9189,-2.8152,0.6866,0.8621,0.000000,0.000000,0.00
-0.1143,0.0422,0.9209,-2.9373,0.6943,0.8011,0.000000,0.000000,0.00
-0.1111,0.0488,0.9180,-2.9755,0.9384,0.8545,0.000000,0.000000,0.00
-0.1125,0.0417,0.9180,-2.8305,0.6180,0.9155,0.000000,0.000000,0.00
-0.1157,0.0376,0.9185,-2.6779,0.7477,0.8240,0.000000,0.000000,0.00
-0.1128,0.0396,0.9136,-2.8534,0.7935,0.9155,0.000000,0.000000,0.00
-0.1111,0.0444,0.9265,-2.8305,0.6790,0.9079,0.000000,0.000000,0.00
-0.1099,0.0442,0.9277,-2.7237,0.6027,0.8469,0.000000,0.000000,0.00
-0.1057,0.0447,0.9272,-2.7924,0.7248,0.8163,0.000000,0.000000,0.00
-0.1199,0.0403,0.9270,-2.8229,0.6866,0.7935,0.000000,0.000000,0.00
-0.1106,0.0405,0.9209,-2.8000,0.8545,0.7935,0.000000,0.000000,0.00
-0.0732,0.0696,0.8882,-2.7313,2.1667,1.5640,0.000000,0.000000,0.00
-0.1160,0.0425,0.9255,-2.7542,0.6409,0.8163,0.000000,0.000000,0.00
-0.2690,-0.0454,1.0239,-3.9062,-13.2141,2.8610,0.000000,0.000000,0.00
-0.1721,0.0852,0.9041,-2.0905,-0.3052,1.0910,0.000000,0.000000,0.00
-0.2349,0.0701,0.9482,-2.5940,3.1052,2.0905,0.000000,0.000000,0.00
-0.1660,0.0442,0.9197,-2.5253,-0.1907,0.6027,0.000000,0.000000,0.00
-0.3054,0.0042,1.0183,-0.1602,-13.8474,-8.9874,0.000000,0.000000,0.00
0.3552,-0.3533,0.8804,-3.4180,3.3417,0.9689,0.000000,0.000000,0.00
-0.1377,0.0474,0.9138,-2.7924,1.0300,0.7706,0.000000,0.000000,0.00
-0.1453,0.0500,0.9214,-2.8610,0.4578,0.7935,0.000000,0.000000,0.00
-0.1433,0.0444,0.9165,-2.8000,0.8163,0.8926,0.000000,0.000000,0.00
-0.1392,0.0371,0.9172,-2.9068,0.8392,0.9537,0.000000,0.000000,0.00
-0.1372,0.0510,0.9177,-2.8229,0.7782,0.7629,0.000000,0.000000,0.00
-0.1499,0.0486,0.9236,-2.7237,0.7477,0.8163,0.000000,0.000000,0.00
-0.1426,0.0466,0.9246,-2.7847,0.6409,0.8926,0.000000,0.000000,0.00
-0.1494,0.0464,0.9158,-2.8992,0.6561,0.7553,0.000000,0.000000,0.00
-0.1379,0.0474,0.9124,-2.7695,0.8316,0.7095,0.000000,0.000000,0.00
-0.1450,0.0479,0.9197,-2.7695,0.8392,0.7095,0.000000,0.000000,0.00
-0.1494,0.0479,0.9175,-2.8839,0.8621,0.9079,0.000000,0.000000,0.00
-0.1470,0.0417,0.9219,-2.8000,0.9384,1.0147,0.000000,0.000000,0.00
-0.1418,0.0435,0.9197,-2.8610,0.8698,0.8240,0.000000,0.000000,0.00
-0.1423,0.0430,0.9207,-2.7390,0.7629,0.8163,0.000000,0.000000,0.00
-0.1458,0.0466,0.9224,-2.7618,0.7401,0.7477,0.000000,0.000000,0.00
-0.1423,0.0461,0.9106,-2.8000,0.9079,0.7782,0.000000,0.000000,0.00
-0.1470,0.0464,0.9194,-2.7008,0.8545,0.8392,0.000000,0.000000,0.00
-0.1343,0.0442,0.9214,-3.0136,0.6332,0.8850,0.000000,0.000000,0.00
-0.1475,0.0435,0.9182,-2.8381,0.8011,0.8240,0.000000,0.000000,0.00
-0.1404,0.0454,0.9094,-2.7847,0.8545,0.6714,0.000000,0.000000,0.00
-0.1443,0.0513,0.9177,-2.7924,0.8163,0.8545,0.000000,0.000000,0.00
-0.1450,0.0505,0.9172,-2.9144,0.6790,0.8698,0.000000,0.000000,0.00
-0.1340,0.0503,0.9058,-2.8839,0.6714,0.7553,0.000000,0.000000,0.00
-0.1433,0.0476,0.9189,-2.7542,0.8774,0.6790,0.000000,0.000000,0.00
-0.1392,0.0417,0.9163,-2.8305,0.6790,0.9155,0.000000,0.000000,0.00
-0.1409,0.0435,0.9163,-2.8381,0.7248,0.9308,0.000000,0.000000,0.00
-0.1401,0.0457,0.9226,-2.7084,0.7477,0.7477,0.000000,0.000000,0.00
-0.1467,0.0420,0.9202,-2.8534,0.6256,0.7019,0.000000,0.000000,0.00
-0.1416,0.0483,0.9114,-3.0060,0.8392,0.6561,0.000000,0.000000,0.00
-0.1399,0.0439,0.9131,-2.9144,0.4425,0.9155,0.000000,0.000000,0.00
-0.1455,0.0457,0.9172,-2.7237,0.6714,0.8163,0.000000,0.000000,0.00
-0.1433,0.0469,0.9155,-2.7161,0.9384,0.7782,0.000000,0.000000,0.00
-0.1423,0.0425,0.9255,-2.7618,0.7858,0.8087,0.000000,0.000000,0.00
-0.1399,0.0469,0.9141,-2.8000,0.6409,0.8621,0.000000,0.000000,0.00
-0.1401,0.0503,0.9209,-2.8687,0.7019,0.6790,0.000000,0.000000,0.00
-0.1433,0.0476,0.9121,-2.7542,0.8392,0.7324,0.000000,0.000000,0.00
-0.1465,0.0476,0.9148,-2.8305,0.7401,0.7248,0.000000,0.000000,0.00
-0.1436,0.0432,0.9241,-2.9297,0.8163,0.7095,0.000000,0.000000,0.00
-0.1409,0.0454,0.9194,-3.0060,0.6256,0.7553,0.000000,0.000000,0.00
-0.1377,0.0508,0.9216,-2.8687,0.7172,0.8392,0.000000,0.000000,0.00
-0.1416,0.0442,0.9138,-2.8534,0.8011,0.7172,0.000000,0.000000,0.00
-0.1475,0.0452,0.9138,-2.8076,0.6866,0.7553,0.000000,0.000000,0.00
-0.1414,0.0435,0.9163,-2.8229,0.6256,0.8011,0.000000,0.000000,0.00
-0.1460,0.0491,0.9133,-2.8305,0.7019,0.7401,0.000000,0.000000,0.00
-0.1467,0.0356,0.9080,-2.8763,0.7324,0.7782,0.000000,0.000000,0.00
-0.1443,0.0442,0.9055,-2.7924,0.5951,0.8240,0.000000,0.000000,0.00
-0.1365,0.0466,0.9099,-2.7390,0.7477,0.8011,0.000000,0.000000,0.00
-0.1377,0.0398,0.9148,-2.8915,0.9079,0.7782,0.000000,0.000000,0.00
-0.1414,0.0447,0.9160,-2.7847,0.8316,0.8850,0.000000,0.000000,0.00
-0.1426,0.0442,0.9185,-2.8839,0.7172,0.7477,0.000000,0.000000,0.00
-0.1431,0.0449,0.9180,-2.7466,0.6943,0.9613,0.000000,0.000000,0.00
-0.1426,0.0461,0.9194,-2.6779,0.8163,0.8316,0.000000,0.000000,0.00
-0.1423,0.0442,0.9119,-2.6932,0.7858,0.7858,0.000000,0.000000,0.00
-0.1428,0.0449,0.9063,-2.8534,0.6790,0.8545,0.000000,0.000000,0.00
-0.1396,0.0437,0.9163,-2.9449,0.6561,0.8469,0.000000,0.000000,0.00
-0.1394,0.0466,0.9148,-2.8152,0.8316,0.9842,0.000000,0.000000,0.00
-0.1379,0.0432,0.9111,-2.9373,0.8163,0.9384,0.000000,0.000000,0.00
-0.1372,0.0454,0.9080,-2.7618,0.7553,0.8469,0.000000,0.000000,0.00
-0.1467,0.0425,0.9143,-2.7695,0.9689,0.7553,0.000000,0.000000,0.00
-0.1479,0.0481,0.9114,-2.8152,0.5417,0.8698,0.000000,0.000000,0.00
-0.1396,0.0447,0.9165,-2.8992,0.5951,0.6943,0.000000,0.000000,0.00
-0.1450,0.0457,0.9163,-2.9373,0.7095,0.7477,0.000000,0.000000,0.00
-0.1465,0.0498,0.9185,-2.9907,0.7401,0.8698,0.000000,0.000000,0.00
-0.1433,0.0442,0.9065,-2.9449,0.6409,0.7629,0.000000,0.000000,0.00
-0.1448,0.0432,0.9148,-2.7695,0.8011,0.6866,0.000000,0.000000,0.00
-0.1467,0.0442,0.9133,-2.7924,0.7629,0.7858,0.000000,0.000000,0.00
-0.1458,0.0452,0.9097,-2.9373,0.8240,0.8545,0.000000,0.000000,0.00
-0.1445,0.0493,0.9155,-2.8687,0.5951,0.7858,0.000000,0.000000,0.00
-0.1440,0.0432,0.9175,-2.9144,0.7935,0.9460,0.000000,0.000000,0.00
-0.1450,0.0425,0.9185,-2.7695,0.6104,0.8011,0.000000,0.000000,0.00
-0.1455,0.0457,0.9185,-2.7313,0.7172,0.8240,0.000000,0.000000,0.00
-0.1433,0.0464,0.9087,-2.7924,0.7172,0.8316,0.000000,0.000000,0.00
-0.1436,0.0437,0.9124,-2.8763,0.5493,1.0147,0.000000,0.000000,0.00
-0.1504,0.0549,0.9072,-2.8534,0.5264,0.8163,0.000000,0.000000,0.00
-0.1460,0.0396,0.9153,-2.9831,0.6943,0.8011,0.000000,0.000000,0.00
-0.1404,0.0449,0.9192,-2.8152,0.5722,0.8850,0.000000,0.000000,0.00
-0.1460,0.0447,0.9189,-2.9755,0.6180,0.7248,0.000000,0.000000,0.00
-0.1458,0.0444,0.9148,-2.9068,0.9995,1.0452,0.000000,0.000000,0.00
-0.1445,0.0422,0.9202,-2.7695,0.5646,0.7553,0.000000,0.000000,0.00
-0.1409,0.0391,0.9194,-2.8763,0.5112,0.9308,0.000000,0.000000,0.00
-0.1389,0.0496,0.9175,-2.9678,0.7553,0.8240,0.000000,0.000000,0.00
-0.1475,0.0425,0.9153,-2.9907,0.6256,0.7935,0.000000,0.000000,0.00
-0.1428,0.0437,0.9106,-2.7084,0.6409,0.7782,0.000000,0.000000,0.00
-0.1423,0.0388,0.9116,-2.9755,0.7935,0.7858,0.000000,0.000000,0.00
-0.1428,0.0532,0.9153,-2.8534,0.7172,0.7401,0.000000,0.000000,0.00
-0.1438,0.0435,0.9106,-2.8381,0.6332,1.0452,0.000000,0.000000,0.00
-0.1387,0.0471,0.9192,-2.8381,0.7782,0.8698,0.000000,0.000000,0.00
-0.1426,0.0513,0.9133,-2.7008,0.7858,0.8545,0.000000,0.000000,0.00
-0.1396,0.0437,0.9063,-3.0060,0.7935,0.7477,0.000000,0.000000,0.00
-0.1458,0.0405,0.9226,-2.9144,0.8545,0.7248,0.000000,0.000000,0.00
-0.1462,0.0471,0.9128,-2.8076,0.9155,0.7401,0.000000,0.000000,0.00
-0.1433,0.0417,0.9141,-2.8076,0.7935,0.8621,0.000000,0.000000,0.00
-0.1465,0.0457,0.9114,-2.9526,0.5798,0.6561,0.000000,0.000000,0.00
-0.1438,0.0449,0.9111,-2.7466,0.6561,0.7629,0.000000,0.000000,0.00
-0.1409,0.0405,0.9119,-2.9144,0.6409,0.7935,0.000000,0.000000,0.00
-0.1475,0.0476,0.9155,-2.9373,0.6027,0.6638,0.000000,0.000000,0.00
-0.1516,0.0513,0.9131,-2.7695,0.6714,0.8621,0.000000,0.000000,0.00
-0.1382,0.0442,0.9167,-2.8763,0.8163,0.8163,0.000000,0.000000,0.00
-0.1448,0.0391,0.9172,-2.8534,0.5798,0.9995,0.000000,0.000000,0.00
-0.1404,0.0503,0.9097,-2.8458,0.7477,0.8392,0.000000,0.000000,0.00
-0.1423,0.0420,0.9075,-2.8763,0.8163,0.8698,0.000000,0.000000,0.00
-0.1392,0.0439,0.9082,-2.8687,0.6027,0.8163,0.000000,0.000000,0.00
-0.1440,0.0427,0.9160,-2.8534,0.7706,0.6409,0.000000,0.000000,0.00
-0.1399,0.0439,0.9189,-2.8076,0.8240,0.9384,0.000000,0.000000,0.00
-0.1436,0.0427,0.9114,-2.7924,0.6485,0.8240,0.000000,0.000000,0.00
-0.1465,0.0476,0.9221,-2.8458,0.6943,0.7019,0.000000,0.000000,0.00
-0.1353,0.0430,0.9124,-2.6855,0.6104,0.7401,0.000000,0.000000,0.00
-0.1443,0.0464,0.9133,-3.0212,0.8850,0.7782,0.000000,0.000000,0.00
-0.1409,0.0474,0.9058,-3.0060,0.7629,0.8698,0.000000,0.000000,0.00
-0.1414,0.0500,0.9199,-2.7924,0.6409,0.7782,0.000000,0.000000,0.00
-0.1357,0.0444,0.9114,-2.8610,0.5951,0.9308,0.000000,0.000000,0.00
-0.1418,0.0518,0.9153,-2.9068,0.6638,0.8850,0.000000,0.000000,0.00
-0.1445,0.0427,0.9102,-2.7695,0.5646,0.8316,0.000000,0.000000,0.00
-0.1460,0.0479,0.9136,-2.7618,0.7553,0.8545,0.000000,0.000000,0.00
-0.1458,0.0454,0.9163,-2.8458,0.7248,0.7782,0.000000,0.000000,0.00
-0.1421,0.0464,0.9192,-2.8076,0.6638,0.8392,0.000000,0.000000,0.00
-0.1409,0.0469,0.9167,-2.8839,0.5875,0.8163,0.000000,0.000000,0.00
-0.1482,0.0557,0.9126,-2.8305,1.3733,0.8621,0.000000,0.000000,0.00
-0.1455,0.0466,0.9219,-3.3798,0.7324,0.9460,0.000000,0.000000,0.00
0.0454,0.0137,0.8777,-3.3951,-6.9122,1.1292,0.000000,0.000000,0.00
-0.1328,0.0513,0.8911,-3.8071,3.0899,0.8163,0.000000,0.000000,0.00
-0.1409,0.0503,0.9153,-2.9297,0.8469,0.7324,0.000000,0.000000,0.00
-0.1409,0.0493,0.9111,-2.9068,0.9308,0.9995,0.000000,0.000000,0.00
-0.1423,0.0522,0.9133,-2.9221,0.5646,0.7401,0.000000,0.000000,0.00
-0.1418,0.0520,0.9111,-2.9831,0.6866,0.6943,0.000000,0.000000,0.00
-0.1433,0.0532,0.9128,-2.8534,0.7095,0.8392,0.000000,0.000000,0.00
-0.1433,0.0466,0.9080,-2.9144,0.6866,0.8240,0.000000,0.000000,0.00
-0.1431,0.0522,0.9131,-2.9068,0.7858,0.8469,0.000000,0.000000,0.00
-0.1367,0.0547,0.9026,-2.9373,0.7172,0.9308,0.000000,0.000000,0.00
-0.1448,0.0571,0.9053,-2.8305,0.7935,0.8926,0.000000,0.000000,0.00
-0.1511,0.0466,0.9114,-3.5553,0.9308,0.9613,0.000000,0.000000,0.00
-0.1577,0.0593,0.9124,-3.1357,0.4654,0.9537,0.000000,0.000000,0.00
-0.1470,0.0483,0.9082,-2.6245,0.6638,0.7706,0.000000,0.000000,0.00
-0.1445,0.0540,0.9160,-2.8915,0.5722,0.8774,0.000000,0.000000,0.00
-0.1511,0.0515,0.9148,-3.0899,0.8469,0.7172,0.000000,0.000000,0.00
-0.1450,0.0522,0.9165,-2.8534,0.6714,0.9155,0.000000,0.000000,0.00
-0.1826,0.0608,0.9224,-1.2131,-0.2289,0.3433,0.000000,0.000000,0.00
-0.1453,0.0557,0.9141,-2.7008,1.0529,0.9079,0.000000,0.000000,0.00
-0.1558,0.0574,0.9006,-2.7466,0.9689,0.9613,0.000000,0.000000,0.00
-0.1462,0.0493,0.9148,-2.7695,0.6485,0.8469,0.000000,0.000000,0.00
-0.1477,0.0579,0.9143,-2.7313,0.8850,0.7935,0.000000,0.000000,0.00
-0.1489,0.0637,0.9089,-2.9526,0.2823,0.8316,0.000000,0.000000,0.00
-0.1482,0.0549,0.9182,-2.9831,0.8926,0.8469,0.000000,0.000000,0.00
-0.1484,0.0493,0.9114,-2.8915,0.8621,0.7248,0.000000,0.000000,0.00
-0.1511,0.0554,0.9087,-2.8229,0.8240,0.8316,0.000000,0.000000,0.00
-0.1448,0.0618,0.9150,-2.8152,0.8011,0.7324,0.000000,0.000000,0.00
-0.1492,0.0552,0.9138,-2.8992,0.7858,0.7629,0.000000,0.000000,0.00
-0.1436,0.0591,0.9058,-2.7084,0.6866,0.8163,0.000000,0.000000,0.00
-0.1531,0.0488,0.9124,-2.8992,0.7629,0.7782,0.000000,0.000000,0.00
-0.1475,0.0549,0.9165,-2.8076,0.5264,0.7706,0.000000,0.000000,0.00
-0.1418,0.0540,0.9160,-2.5330,0.2747,1.0529,0.000000,0.000000,0.00
-0.1394,0.0684,0.8989,-2.1591,1.1673,1.0452,0.000000,0.000000,0.00
-0.1421,0.0554,0.9124,-2.7924,0.8392,0.9232,0.000000,0.000000,0.00
-0.1521,0.0564,0.9028,-2.9373,0.6714,0.8545,0.000000,0.000000,0.00
-0.1697,0.0430,0.9502,-6.0272,0.1450,0.0000,0.000000,0.000000,0.00
-0.1509,0.0625,0.9023,-2.8763,0.7782,0.8469,0.000000,0.000000,0.00
-0.1562,0.0581,0.9141,-2.8000,0.7172,0.9537,0.000000,0.000000,0.00
-0.1489,0.0574,0.9072,-2.8381,0.6790,0.6866,0.000000,0.000000,0.00
-0.1523,0.0576,0.9148,-2.7695,0.6714,0.8545,0.000000,0.000000,0.00
-0.1533,0.0627,0.9133,-2.9449,0.6790,0.8163,0.000000,0.000000,0.00
-0.1514,0.0601,0.9163,-2.8381,0.6409,0.8621,0.000000,0.000000,0.00
-0.1555,0.0630,0.9045,-2.7695,0.8240,0.6180,0.000000,0.000000,0.00
-0.1489,0.0562,0.9038,-2.9526,0.6485,0.7935,0.000000,0.000000,0.00
-0.1511,0.0549,0.9065,-2.8000,0.6790,0.9232,0.000000,0.000000,0.00
-0.1558,0.0601,0.9114,-2.8534,0.7858,0.8774,0.000000,0.000000,0.00
-0.1511,0.0620,0.9119,-2.8610,0.6409,0.8240,0.000000,0.000000,0.00
-0.1619,0.0542,0.9065,-2.8992,0.6485,0.9460,0.000000,0.000000,0.00
-0.1501,0.0588,0.9063,-2.9526,0.6790,0.7706,0.000000,0.000000,0.00
-0.1514,0.0623,0.9153,-2.8381,0.7629,0.8469,0.000000,0.000000,0.00
-0.1555,0.0623,0.9082,-2.9144,0.6866,0.6866,0.000000,0.000000,0.00
-0.1479,0.0640,0.9065,-3.0975,0.7401,0.9613,0.000000,0.000000,0.00
-0.1560,0.0583,0.9055,-2.9221,0.6256,0.7095,0.000000,0.000000,0.00
-0.1531,0.0549,0.9126,-2.8915,0.9766,0.9079,0.000000,0.000000,0.00
-0.1536,0.0652,0.9031,-2.8534,0.7019,0.7553,0.000000,0.000000,0.00
-0.1504,0.0601,0.9060,-2.9526,0.5875,0.7553,0.000000,0.000000,0.00
-0.1550,0.0586,0.9111,-2.7847,0.5951,0.8698,0.000000,0.000000,0.00
-0.1543,0.0586,0.9099,-2.8076,0.6714,0.7782,0.000000,0.000000,0.00
-0.1550,0.0637,0.9172,-2.9678,0.7248,0.9308,0.000000,0.000000,0.00
-0.1489,0.0559,0.9104,-3.0518,0.7629,0.8850,0.000000,0.000000,0.00
-0.1523,0.0605,0.9172,-2.7695,0.7019,0.9155,0.000000,0.000000,0.00
-0.1511,0.0688,0.9175,-2.9144,0.8240,0.9460,0.000000,0.000000,0.00
-0.1562,0.0642,0.9126,-2.9297,0.5875,0.7172,0.000000,0.000000,0.00
-0.1543,0.0603,0.9119,-2.9602,0.8011,0.7553,0.000000,0.000000,0.00
-0.1562,0.0583,0.9175,-2.7618,0.5722,0.8469,0.000000,0.000000,0.00
-0.1580,0.0549,0.9065,-2.8687,0.8392,0.7248,0.000000,0.000000,0.00
-0.1497,0.0642,0.9065,-2.8992,0.6561,0.8316,0.000000,0.000000,0.00
-0.1541,0.0596,0.9094,-3.0594,0.7858,0.8163,0.000000,0.000000,0.00
-0.1506,0.0559,0.9099,-2.9526,0.8850,0.7324,0.000000,0.000000,0.00
-0.1575,0.0593,0.9072,-3.0212,0.6714,0.7858,0.000000,0.000000,0.00
-0.1516,0.0667,0.9077,-2.8915,0.7858,0.9232,0.000000,0.000000,0.00
-0.1538,0.0659,0.9072,-2.8305,0.7324,0.9003,0.000000,0.000000,0.00
-0.1548,0.0583,0.9072,-2.8381,0.5798,0.8087,0.000000,0.000000,0.00
-0.1553,0.0554,0.8997,-2.9907,0.7401,0.8011,0.000000,0.000000,0.00
-0.1594,0.0540,0.9111,-2.9373,0.7477,0.6485,0.000000,0.000000,0.00
-0.1548,0.0603,0.9009,-2.9449,0.7324,0.8087,0.000000,0.000000,0.00
-0.1533,0.0542,0.9106,-2.9221,0.8316,0.8011,0.000000,0.000000,0.00
-0.1553,0.0642,0.9119,-2.7466,0.8087,0.7477,0.000000,0.000000,0.00
-0.1548,0.0581,0.9028,-2.8839,0.6638,0.9460,0.000000,0.000000,0.00
-0.1580,0.0557,0.9131,-2.9602,0.6866,0.7858,0.000000,0.000000,0.00
-0.1536,0.0613,0.9077,-2.9678,0.9003,0.8926,0.000000,0.000000,0.00
-0.1531,0.0532,0.9089,-2.8458,0.7324,0.9079,0.000000,0.000000,0.00
-0.1587,0.0544,0.9153,-2.8458,0.8240,0.8240,0.000000,0.000000,0.00
-0.1575,0.0571,0.9106,-2.8381,0.7401,0.7782,0.000000,0.000000,0.00
-0.1567,0.0623,0.9114,-2.7542,0.6638,0.7172,0.000000,0.000000,0.00
-0.1499,0.0627,0.9111,-3.0289,0.7019,0.6104,0.000000,0.000000,0.00
-0.1553,0.0588,0.9116,-2.8000,0.3586,0.7858,0.000000,0.000000,0.00
-0.1538,0.0676,0.9077,-2.6474,0.6180,0.7248,0.000000,0.000000,0.00
-0.1543,0.0608,0.9063,-2.8610,0.8240,0.9766,0.000000,0.000000,0.00
-0.1528,0.0635,0.9160,-2.8458,0.8316,0.7782,0.000000,0.000000,0.00
-0.1538,0.0566,0.9077,-2.8458,0.7324,0.8926,0.000000,0.000000,0.00
-0.1562,0.0640,0.9194,-2.9068,0.7401,0.8392,0.000000,0.000000,0.00
-0.1536,0.0635,0.9150,-2.8839,0.6485,0.6180,0.000000,0.000000,0.00
-0.1553,0.0605,0.9048,-2.7084,0.6256,0.8926,0.000000,0.000000,0.00
-0.1123,0.0803,0.8828,-1.9226,2.8076,0.8469,0.000000,0.000000,0.00
-0.1638,0.0691,0.9202,-3.2883,1.2970,0.4196,0.000000,0.000000,0.00
-0.1479,0.0676,0.8928,-2.6093,-0.3357,0.6943,0.000000,0.000000,0.00
-0.1587,0.0569,0.9067,-3.0975,0.5798,0.7248,0.000000,0.000000,0.00
-0.1509,0.0676,0.9026,-2.8915,0.6485,0.8926,0.000000,0.000000,0.00
-0.1567,0.0667,0.9119,-2.8458,0.5188,0.7172,0.000000,0.000000,0.00
-0.1511,0.0688,0.9080,-2.9984,0.5646,0.7248,0.000000,0.000000,0.00
-0.1545,0.0669,0.9136,-2.7771,0.6714,0.9232,0.000000,0.000000,0.00
-0.1514,0.0710,0.9192,-6.3171,8.4991,0.9232,0.000000,0.000000,0.00
-0.1855,0.0452,0.9214,-6.5002,3.9902,1.1597,0.000000,0.000000,0.00
-0.1792,0.0732,0.8970,-8.7128,0.3738,2.7161,0.000000,0.000000,0.00
-0.1489,0.0605,0.9045,-2.5940,1.1749,0.8850,0.000000,0.000000,0.00
-0.1404,0.0635,0.8958,-2.9602,1.4343,1.0605,0.000000,0.000000,0.00
-0.1904,0.0691,0.9114,-5.5618,0.7553,-0.0763,0.000000,0.000000,0.00
-0.1594,0.0657,0.9055,-3.0975,0.3815,0.9689,0.000000,0.000000,0.00
-0.1575,0.0618,0.8965,-2.8305,0.6561,0.8774,0.000000,0.000000,0.00
-0.1641,0.0679,0.9077,-2.8534,0.7172,0.8316,0.000000,0.000000,0.00
-0.1614,0.0603,0.9133,-2.9068,0.7019,0.9003,0.000000,0.000000,0.00
-0.1516,0.0674,0.8992,-2.7695,0.5569,0.6256,0.000000,0.000000,0.00
-0.1570,0.0681,0.9126,-2.8152,0.6866,1.0147,0.000000,0.000000,0.00
-0.1606,0.0684,0.8921,-2.9602,0.7019,0.8392,0.000000,0.000000,0.00
-0.1572,0.0693,0.9053,-2.8076,0.7629,0.9308,0.000000,0.000000,0.00
-0.1565,0.0671,0.9102,-2.8381,0.8240,0.7248,0.000000,0.000000,0.00
-0.1536,0.0674,0.9070,-2.8687,0.7477,0.9689,0.000000,0.000000,0.00
-0.1577,0.0605,0.9023,-2.9907,0.9003,0.9079,0.000000,0.000000,0.00
-0.1548,0.0659,0.8960,-2.9221,0.5646,0.8240,0.000000,0.000000,0.00
-0.1511,0.0605,0.9028,-2.8534,0.5875,0.8698,0.000000,0.000000,0.00
-0.1558,0.0610,0.9048,-2.9068,0.6866,0.9155,0.000000,0.000000,0.00
-0.1511,0.0615,0.9070,-2.8839,0.6866,0.8545,0.000000,0.000000,0.00
-0.1606,0.0635,0.9087,-2.9449,0.7553,0.8163,0.000000,0.000000,0.00
-0.1599,0.0662,0.9019,-3.0746,0.6561,0.8087,0.000000,0.000000,0.00
-0.1606,0.0676,0.9121,-2.9984,0.6790,0.8011,0.000000,0.000000,0.00
-0.1548,0.0674,0.9153,-2.7618,0.5569,0.9003,0.000000,0.000000,0.00
-0.1509,0.0642,0.9045,-2.8534,0.6866,0.8469,0.000000,0.000000,0.00
-0.1514,0.0681,0.9033,-2.9602,0.7477,0.8774,0.000000,0.000000,0.00
-0.1528,0.0620,0.9094,-2.9221,0.5493,0.9079,0.000000,0.000000,0.00
-0.1580,0.0684,0.9041,-2.9831,0.5264,0.8469,0.000000,0.000000,0.00
-0.1543,0.0667,0.8970,-2.8152,0.6485,0.8926,0.000000,0.000000,0.00
-0.1604,0.0681,0.9104,-2.8229,0.8316,0.8698,0.000000,0.000000,0.00
-0.1628,0.0598,0.9038,-2.9984,0.6104,0.8163,0.000000,0.000000,0.00
-0.1606,0.0664,0.9150,-2.8152,0.7324,0.7782,0.000000,0.000000,0.00
-0.1584,0.0706,0.9021,-2.9831,0.7935,0.6561,0.000000,0.000000,0.00
-0.1536,0.0696,0.9077,-2.9449,0.6332,1.0529,0.000000,0.000000,0.00
-0.1516,0.0618,0.9053,-2.9602,0.9003,0.7248,0.000000,0.000000,0.00
-0.1582,0.0684,0.9023,-3.0060,0.6027,0.8011,0.000000,0.000000,0.00
-0.1626,0.0662,0.9075,-2.8305,0.6790,0.7477,0.000000,0.000000,0.00
-0.1536,0.0681,0.9045,-2.9144,0.6485,0.7858,0.000000,0.000000,0.00
-0.1606,0.0630,0.9023,-2.8915,0.6332,0.7706,0.000000,0.000000,0.00
-0.1580,0.0654,0.9121,-2.9068,0.5341,0.8774,0.000000,0.000000,0.00
-0.1509,0.0610,0.8992,-2.9678,0.6638,0.7172,0.000000,0.000000,0.00
-0.1614,0.0671,0.9131,-2.8152,0.7019,0.7172,0.000000,0.000000,0.00
-0.1545,0.0608,0.9126,-2.9678,0.6714,0.7935,0.000000,0.000000,0.00
-0.1621,0.0645,0.8997,-2.8534,0.7095,0.7248,0.000000,0.000000,0.00
-0.1553,0.0630,0.9114,-2.7161,0.5569,0.8240,0.000000,0.000000,0.00
-0.1531,0.0667,0.9084,-2.8992,0.6714,0.7324,0.000000,0.000000,0.00
-0.1526,0.0598,0.9038,-2.9221,0.7095,0.6485,0.000000,0.000000,0.00
-0.1538,0.0642,0.9009,-2.8915,0.7782,0.7401,0.000000,0.000000,0.00
-0.1575,0.0674,0.9106,-2.9831,0.7401,0.8392,0.000000,0.000000,0.00
-0.1655,0.0608,0.9021,-2.9678,0.5646,0.6866,0.000000,0.000000,0.00
-0.1599,0.0669,0.9092,-2.7924,0.5722,0.8850,0.000000,0.000000,0.00
-0.1589,0.0613,0.9082,-2.8610,0.7629,0.8011,0.000000,0.000000,0.00
-0.1553,0.0676,0.9031,-2.8076,0.7782,0.8545,0.000000,0.000000,0.00
-0.1609,0.0669,0.9070,-3.0365,0.7172,0.9232,0.000000,0.000000,0.00
-0.1504,0.0625,0.9031,-2.8534,0.7401,0.7629,0.000000,0.000000,0.00
-0.1599,0.0654,0.9011,-2.8687,0.5493,0.8392,0.000000,0.000000,0.00
-0.1580,0.0591,0.9006,-2.8458,0.7248,0.9003,0.000000,0.000000,0.00
-0.1562,0.0662,0.9089,-2.9449,0.9155,0.9155,0.000000,0.000000,0.00
-0.1594,0.0593,0.8962,-2.9526,0.8850,0.8698,0.000000,0.000000,0.00
-0.1567,0.0652,0.9043,-2.7924,0.6866,0.9384,0.000000,0.000000,0.00
-0.1609,0.0664,0.9063,-2.8687,0.7401,0.7553,0.000000,0.000000,0.00
-0.1650,0.0620,0.9114,-2.8076,0.8316,0.8316,0.000000,0.000000,0.00
-0.1572,0.0662,0.9045,-2.8915,0.6790,0.6332,0.000000,0.000000,0.00
-0.1594,0.0662,0.9080,-3.0212,0.6866,0.8163,0.000000,0.000000,0.00
-0.1553,0.0625,0.9097,-2.6932,0.6027,0.7324,0.000000,0.000000,0.00
-0.1597,0.0681,0.9043,-2.9602,0.7706,0.9003,0.000000,0.000000,0.00
-0.1609,0.0701,0.9006,-2.8229,0.8545,0.7782,0.000000,0.000000,0.00
-0.1636,0.0593,0.9114,-2.8763,0.6180,0.8240,0.000000,0.000000,0.00
-0.1543,0.0679,0.8997,-2.8839,0.8011,0.7553,0.000000,0.000000,0.00
-0.1536,0.0652,0.9119,-2.9984,0.7629,0.9232,0.000000,0.000000,0.00
-0.1624,0.0691,0.9114,-2.8381,0.6332,0.9460,0.000000,0.000000,0.00
-0.1606,0.0671,0.9026,-2.8839,0.8469,0.8774,0.000000,0.000000,0.00
-0.1570,0.0623,0.9077,-2.8992,0.7095,0.8240,0.000000,0.000000,0.00
-0.1599,0.0649,0.8992,-2.8610,0.7553,0.7935,0.000000,0.000000,0.00
-0.1626,0.0647,0.9028,-3.0136,0.8469,0.7935,0.000000,0.000000,0.00
-0.1536,0.0674,0.9080,-2.9831,0.7935,0.7858,0.000000,0.000000,0.00
-0.1638,0.0671,0.9053,-2.7237,0.7935,0.8163,0.000000,0.000000,0.00
-0.1589,0.0686,0.9043,-2.7542,0.9689,0.9995,0.000000,0.000000,0.00
-0.1577,0.0657,0.9009,-2.8000,0.7095,0.9460,0.000000,0.000000,0.00
-0.1543,0.0608,0.9072,-2.9144,0.6638,0.8850,0.000000,0.000000,0.00
-0.1560,0.0710,0.9016,-2.8000,0.7324,0.7629,0.000000,0.000000,0.00
-0.1655,0.0654,0.9106,-3.0136,0.6332,0.7706,0.000000,0.000000,0.00
-0.1548,0.0652,0.9006,-2.7237,0.6866,0.7629,0.000000,0.000000,0.00
-0.1604,0.0627,0.9075,-2.8458,0.7401,0.8698,0.000000,0.000000,0.00
-0.1580,0.0674,0.8940,-2.9831,0.8621,0.9232,0.000000,0.000000,0.00
-0.1599,0.0618,0.8972,-2.8763,0.7858,0.7858,0.000000,0.000000,0.00
-0.1570,0.0603,0.9063,-2.9526,0.8392,0.7553,0.000000,0.000000,0.00
-0.1619,0.0654,0.9077,-2.8229,0.4883,0.8163,0.000000,0.000000,0.00
-0.1592,0.0605,0.9019,-2.9297,0.8163,0.8163,0.000000,0.000000,0.00
-0.1565,0.0669,0.9014,-2.9907,0.7324,0.8469,0.000000,0.000000,0.00
-0.1606,0.0688,0.9038,-2.9068,0.5035,0.9232,0.000000,0.000000,0.00
-0.1580,0.0618,0.9063,-2.8992,0.8850,0.8621,0.000000,0.000000,0.00
-0.1638,0.0598,0.9011,-3.0136,0.6866,0.7935,0.000000,0.000000,0.00
-0.1626,0.0659,0.9031,-2.8458,0.8926,0.7782,0.000000,0.000000,0.00
-0.1655,0.0696,0.9121,-2.8458,0.7248,0.8545,0.000000,0.000000,0.00
-0.1580,0.0603,0.9124,-2.9373,0.7706,0.9079,0.000000,0.000000,0.00
-0.1538,0.0571,0.9055,-2.8000,0.7095,0.7858,0.000000,0.000000,0.00
-0.1565,0.0720,0.9028,-2.8229,0.7324,0.6180,0.000000,0.000000,0.00
-0.1550,0.0681,0.9048,-2.8305,0.5646,0.7172,0.000000,0.000000,0.00
-0.1577,0.0703,0.9041,-2.9602,0.6714,0.7935,0.000000,0.000000,0.00
-0.1516,0.0659,0.9058,-2.9144,0.7935,0.9003,0.000000,0.000000,0.00
-0.1541,0.0576,0.9102,-2.7847,0.7935,0.9232,0.000000,0.000000,0.00
-0.1565,0.0637,0.9124,-2.8687,0.6027,0.8469,0.000000,0.000000,0.00
-0.1541,0.0623,0.9026,-2.9068,0.7858,0.8850,0.000000,0.000000,0.00
-0.1633,0.0693,0.9082,-2.7771,0.6943,0.7553,0.000000,0.000000,0.00
-0.1562,0.0657,0.9053,-2.8534,0.6714,0.6409,0.000000,0.000000,0.00
-0.1577,0.0601,0.9011,-2.7084,0.6332,0.7324,0.000000,0.000000,0.00
-0.1550,0.0618,0.9045,-2.8839,0.7324,0.9232,0.000000,0.000000,0.00
-0.1584,0.0608,0.9023,-2.9144,0.6790,0.8621,0.000000,0.000000,0.00
-0.1606,0.0667,0.8940,-2.8458,0.6027,0.9460,0.000000,0.000000,0.00
-0.1584,0.0693,0.9014,-2.9602,0.8011,0.8392,0.000000,0.000000,0.00
-0.1531,0.0669,0.9006,-2.6627,0.6485,0.9003,0.000000,0.000000,0.00
-0.1558,0.0720,0.9067,-2.9373,0.8087,0.8163,0.000000,0.000000,0.00
-0.1606,0.0618,0.9102,-2.9373,0.8087,0.7858,22.516722,88.418327,0.04
-0.1616,0.0608,0.9119,-2.9602,0.5875,0.7553,22.516748,88.418335,0.17
-0.1604,0.0710,0.8994,-2.9449,0.5493,0.7858,22.516756,88.418335,0.20
-0.1521,0.0632,0.8955,-2.9907,0.8240,0.8011,22.516768,88.418335,0.24
-0.1602,0.0703,0.8982,-2.9144,0.8698,0.7477,22.516769,88.418343,0.33
-0.1558,0.0681,0.9084,-2.9373,0.8545,0.7248,22.516758,88.418335,0.06
-0.1660,0.0591,0.9014,-2.8610,0.6332,0.8392,22.516756,88.418327,0.15
-0.1582,0.0613,0.9099,-2.8229,1.2436,0.8011,22.516754,88.418327,0.15
-0.1614,0.0671,0.9021,-2.9526,0.7324,0.8392,22.516752,88.418320,0.20
-0.1602,0.0637,0.9041,-2.9449,0.5875,0.9995,22.516756,88.418327,0.07
-0.1599,0.0654,0.9072,-3.0060,0.7324,0.8087,22.516752,88.418320,0.11
-0.1609,0.0640,0.8992,-2.9907,0.5951,0.8240,22.516748,88.418320,0.07
-0.1606,0.0613,0.9055,-2.8992,0.6256,1.0071,22.516747,88.418320,0.17
-0.1587,0.0623,0.8979,-2.8915,0.8392,0.9079,22.516745,88.418320,0.06
-0.1548,0.0601,0.9019,-3.0212,0.5722,0.7629,22.516743,88.418320,0.09
-0.1553,0.0681,0.9116,-3.0212,0.7782,0.7935,22.516741,88.418320,0.11
-0.1572,0.0664,0.9028,-2.8381,0.8316,1.0300,22.516741,88.418320,0.20
-0.1611,0.0618,0.9104,-2.8000,0.7706,0.7095,22.516739,88.418320,0.07
-0.1597,0.0635,0.9065,-2.8381,0.7629,0.8316,22.516741,88.418320,0.22
-0.1619,0.0676,0.9109,-2.9907,0.9232,0.9689,22.516739,88.418320,0.06
-0.1587,0.0706,0.9067,-2.9297,0.5798,0.8850,22.516737,88.418320,0.11
-0.1567,0.0610,0.9043,-2.9755,0.7172,0.9384,22.516733,88.418312,0.31
-0.1592,0.0647,0.9045,-3.0518,0.7629,0.8392,22.516733,88.418312,0.06
-0.1599,0.0605,0.9028,-2.9602,0.6638,0.8698,22.516729,88.418312,0.07
-0.1606,0.0684,0.9063,-2.8381,0.7324,0.7095,22.516726,88.418312,0.11
-0.1567,0.0671,0.9014,-2.9907,0.6256,0.7782,22.516722,88.418304,0.06
-0.1562,0.0627,0.9019,-2.9144,0.7553,0.7935,22.516718,88.418304,0.35
-0.1628,0.0671,0.9114,-2.8687,0.5951,0.9918,22.516716,88.418304,0.20
-0.1580,0.0625,0.9067,-2.9602,0.7095,0.9308,22.516716,88.418304,1.13
-0.1589,0.0625,0.9050,-2.9831,0.4807,0.8698,22.516714,88.418297,0.48
-0.1597,0.0645,0.9021,-2.9526,0.9079,0.9537,22.516714,88.418297,0.09
-0.1614,0.0662,0.9053,-2.9221,0.8774,0.7553,22.516712,88.418297,0.02
-0.1541,0.0708,0.9055,-2.9602,0.6561,0.7477,22.516712,88.418297,0.56
-0.1626,0.0679,0.9082,-2.8152,0.5951,0.8316,22.516712,88.418297,0.52
-0.1609,0.0635,0.9153,-3.0212,0.5417,0.8545,22.516710,88.418297,0.07
-0.1548,0.0610,0.8997,-2.8534,0.9613,0.8392,22.516710,88.418297,0.15
-0.1616,0.0674,0.9070,-2.9678,1.0147,0.8240,22.516706,88.418289,0.44
-0.1536,0.0669,0.9138,-2.8992,0.8240,0.8163,22.516705,88.418289,0.59
-0.1648,0.0645,0.9050,-2.8381,0.7324,0.9232,22.516705,88.418289,0.19
-0.1570,0.0632,0.8958,-2.8000,0.7858,0.9003,22.516703,88.418289,0.11
-0.1570,0.0725,0.9006,-2.7771,0.7019,0.8163,22.516703,88.418289,0.19
-0.1560,0.0557,0.9019,-2.7771,0.7477,0.9995,22.516703,88.418289,0.57
-0.1621,0.0669,0.8979,-3.0365,0.7324,0.9155,22.516703,88.418289,0.48
-0.1611,0.0649,0.9048,-2.9449,0.6332,0.9232,22.516703,88.418289,0.48
-0.1575,0.0647,0.9102,-2.8915,0.7629,0.8087,22.516672,88.418266,0.11
-0.1562,0.0667,0.8940,-2.7771,0.7248,0.9155,22.516665,88.418266,0.30
-0.1541,0.0610,0.9011,-2.9755,0.7553,0.8240,22.516663,88.418266,0.50
-0.1577,0.0615,0.8967,-2.9449,0.8087,0.8850,22.516665,88.418266,0.07
-0.1621,0.0645,0.8948,-2.8610,0.6485,0.9460,22.516665,88.418266,0.33
-0.1533,0.0635,0.9001,-3.0746,0.6638,0.6943,22.516665,88.418259,0.39
-0.1584,0.0642,0.8997,-2.8534,0.6866,0.8163,22.516666,88.418259,0.44
-0.1650,0.0664,0.9026,-3.0136,0.6638,0.7629,22.516670,88.418259,0.28
-0.1582,0.0586,0.9111,-2.9907,0.6332,0.6104,22.516672,88.418259,0.13
-0.1587,0.0632,0.9060,-3.0136,0.8392,0.7019,22.516676,88.418259,0.26
-0.1555,0.0674,0.9011,-3.1281,0.7095,0.9689,22.516680,88.418259,0.50
-0.1577,0.0647,0.9053,-2.9602,0.6790,0.8011,22.516682,88.418259,0.35
-0.1626,0.0615,0.9063,-2.8458,0.5798,0.7324,22.516685,88.418259,0.33
-0.1624,0.0659,0.9006,-2.7542,0.8011,0.8392,22.516689,88.418259,0.15
-0.1580,0.0615,0.9001,-2.9449,0.7324,0.7782,22.516689,88.418259,0.43
-0.1633,0.0618,0.9014,-2.8763,0.5951,0.7401,22.516689,88.418259,0.28
-0.1611,0.0637,0.9028,-2.8381,0.6638,0.8011,22.516685,88.418266,0.33
-0.1558,0.0647,0.9084,-2.9449,0.5035,1.0910,22.516680,88.418259,0.11
-0.1633,0.0662,0.9006,-2.8076,0.6714,0.8469,22.516676,88.418259,0.33
-0.1562,0.0654,0.9131,-2.8458,0.5722,0.8316,22.516676,88.418259,0.74
-0.1531,0.0757,0.9036,-2.8381,0.7095,0.7401,22.516674,88.418259,0.17
-0.1545,0.0654,0.9138,-2.8992,0.8011,0.7935,22.516672,88.418259,0.00
-0.1636,0.0576,0.9011,-2.9068,0.6256,0.7095,22.516670,88.418259,0.61
-0.1589,0.0649,0.9094,-2.8152,0.8392,0.7858,22.516668,88.418259,0.54
-0.1558,0.0649,0.8965,-2.8992,0.7019,0.7095,22.516663,88.418251,0.59
-0.1621,0.0679,0.9067,-2.9297,0.6943,0.6485,22.516661,88.418251,0.17
-0.1589,0.0649,0.9004,-2.7695,0.7401,0.7095,22.516661,88.418251,0.24
-0.1565,0.0610,0.9089,-2.8534,0.7782,0.7324,22.516661,88.418251,0.50
-0.1606,0.0676,0.8994,-2.8152,0.6332,0.8545,22.516659,88.418251,0.56
-0.1575,0.0625,0.8992,-2.8610,0.6409,0.9308,22.516659,88.418251,0.19
-0.1616,0.0662,0.9070,-2.9221,0.7782,0.8163,22.516655,88.418243,0.11
-0.1565,0.0615,0.9055,-2.7695,0.5798,0.8240,22.516653,88.418243,0.37
-0.1609,0.0635,0.9099,-2.8534,0.8163,0.8469,22.516649,88.418243,0.57
-0.1592,0.0708,0.9065,-2.7161,0.4272,0.7401,22.516649,88.418243,0.43
-0.1577,0.0662,0.9063,-3.0518,0.8469,0.8240,22.516647,88.418236,0.20
-0.1543,0.0640,0.9077,-2.8915,0.7401,0.7782,22.516645,88.418236,0.22
-0.1589,0.0642,0.9004,-2.9068,0.8392,0.6561,22.516645,88.418236,0.54
-0.1616,0.0662,0.9036,-2.9602,0.7477,0.6790,22.516645,88.418236,0.61
-0.1602,0.0615,0.9014,-2.8305,0.6409,0.7172,22.516645,88.418236,0.26
-0.1611,0.0623,0.9080,-2.9068,0.7782,0.7324,22.516644,88.418236,0.13
-0.1516,0.0620,0.9006,-2.7618,0.6714,0.8087,22.516642,88.418236,0.57
-0.1614,0.0642,0.9106,-2.9755,0.8774,0.8240,22.516638,88.418228,0.81
-0.1533,0.0642,0.8994,-2.8381,0.9384,0.7782,22.516636,88.418228,0.07
-0.1567,0.0620,0.9082,-2.9221,0.8469,0.9613,22.516636,88.418228,0.26
-0.1560,0.0583,0.9065,-2.8763,0.6180,0.9232,22.516632,88.418228,0.50
-0.1475,0.0737,0.9014,-2.9831,0.7172,0.6714,22.516632,88.418228,0.61
-0.1560,0.0649,0.9048,-2.7237,0.7858,0.8087,22.516632,88.418228,0.20
-0.1545,0.0710,0.9063,-2.8687,0.7019,0.7172,22.516628,88.418228,0.33
-0.1572,0.0679,0.9026,-2.7771,0.8316,0.7935,22.516623,88.418228,0.54
-0.1680,0.0654,0.9089,-2.8458,0.6027,0.9384,22.516621,88.418221,0.85
-0.1589,0.0669,0.9001,-2.8992,0.8774,0.8163,22.516619,88.418221,0.50
-0.1582,0.0654,0.9058,-2.9144,0.7401,0.8316,22.516617,88.418228,0.67
-0.1570,0.0654,0.9053,-2.9297,0.6332,0.6027,22.516615,88.418228,1.30
-0.1638,0.0630,0.9031,-2.8839,0.7782,0.8545,22.516613,88.418221,3.00
-0.1575,0.0601,0.9089,-2.8305,0.6866,0.8545,22.516609,88.418221,0.15
-0.1633,0.0652,0.9077,-2.9831,0.5875,0.6943,22.516607,88.418221,0.26
-0.1604,0.0645,0.9011,-2.8000,0.6104,0.9537,22.516605,88.418221,0.67
-0.1702,0.0623,0.9163,-2.9602,0.5341,0.9155,22.516603,88.418221,0.46
-0.1570,0.0669,0.9060,-2.8305,0.8392,0.8087,22.516602,88.418221,0.37
-0.1594,0.0657,0.8977,-2.9907,0.7095,0.6714,22.516602,88.418221,0.48
-0.1577,0.0593,0.9023,-2.9068,0.7706,0.6866,22.516603,88.418221,0.44
-0.1592,0.0649,0.8975,-2.8915,0.7019,0.7401,22.516602,88.418221,0.85
-0.1587,0.0676,0.9031,-2.7390,0.6714,0.8316,22.516600,88.418213,1.74
-0.1553,0.0605,0.9070,-2.7847,0.6638,0.8469,22.516596,88.418213,0.24
-0.1609,0.0610,0.9060,-2.9144,0.5417,0.8469,22.516594,88.418213,0.61
-0.1592,0.0620,0.9055,-2.8610,0.7706,0.8926,22.516592,88.418213,0.24
-0.1628,0.0657,0.9136,-2.8763,0.5798,0.9689,22.516592,88.418213,0.80
-0.1624,0.0659,0.8970,-2.8305,0.7477,0.8163,22.516592,88.418213,2.00
-0.1555,0.0647,0.9092,-2.9068,0.6790,0.6790,22.516592,88.418205,1.54
-0.1611,0.0625,0.9094,-2.7924,0.8469,0.8545,22.516596,88.418198,2.98
-0.1594,0.0630,0.8953,-2.9526,0.5951,0.7172,22.516594,88.418198,1.85
-0.1602,0.0635,0.9072,-2.9678,0.7324,0.8392,22.516596,88.418190,2.50
-0.1562,0.0698,0.9075,-2.8763,0.6256,0.9155,22.516592,88.418190,0.59
-0.1533,0.0615,0.9050,-2.8229,0.6943,0.9995,22.516592,88.418190,0.44
-0.1602,0.0686,0.9038,-2.9068,0.7019,0.7935,22.516592,88.418190,1.02
-0.1567,0.0669,0.9050,-2.8305,0.7324,0.9155,22.516590,88.418190,0.44
-0.1604,0.0618,0.9006,-2.8915,0.5341,0.8087,22.516592,88.418190,1.44
-0.1604,0.0652,0.8958,-2.8000,0.8316,0.9079,22.516594,88.418182,1.63
-0.1609,0.0627,0.9136,-3.0289,0.8087,0.9003,22.516596,88.418182,0.83
-0.1577,0.0647,0.9092,-2.8839,0.8774,1.0147,22.516596,88.418182,1.26
-0.1619,0.0632,0.8997,-2.9449,0.7095,0.7629,22.516598,88.418182,1.72
-0.1611,0.0569,0.9089,-2.8763,0.6714,0.9995,22.516598,88.418182,0.94
-0.1619,0.0703,0.9077,-2.8687,0.6561,0.6638,22.516596,88.418190,0.28
-0.1628,0.0635,0.9072,-2.8610,0.7629,0.8316,22.516596,88.418190,0.37
-0.1594,0.0608,0.9141,-2.7008,0.6256,0.8469,22.516596,88.418190,0.39
-0.1621,0.0664,0.9077,-2.9144,0.6485,0.8392,22.516590,88.418198,1.15
-0.1621,0.0667,0.9016,-2.9984,0.6790,0.7248,22.516588,88.418205,0.65
-0.1584,0.0632,0.9019,-2.8458,0.6485,0.7935,22.516590,88.418205,0.46
-0.1604,0.0686,0.9036,-2.8076,0.7172,0.8392,22.516590,88.418198,1.31
-0.1614,0.0630,0.9050,-3.0212,0.7706,0.9766,22.516590,88.418205,0.11
-0.1587,0.0667,0.9094,-2.9907,0.6485,0.9460,22.516594,88.418198,1.24
-0.1560,0.0591,0.8940,-2.9907,0.7553,0.9003,22.516594,88.418198,0.48
-0.1570,0.0569,0.8984,-2.8152,0.8087,0.8850,22.516592,88.418198,1.02
-0.1633,0.0676,0.8989,-2.9297,0.6866,0.7095,22.516592,88.418190,1.20
-0.1560,0.0601,0.9006,-2.9221,0.6714,0.8316,22.516590,88.418198,0.37
-0.1555,0.0635,0.9011,-2.8610,0.3967,0.7172,22.516586,88.418198,0.48
-0.1536,0.0627,0.8994,-2.8915,0.7248,0.8621,22.516584,88.418198,0.15
-0.1553,0.0627,0.8979,-2.9297,0.6332,0.9232,22.516586,88.418190,1.91
-0.1616,0.0654,0.9038,-2.8381,0.7706,0.7324,22.516586,88.418190,1.22
-0.1545,0.0679,0.9077,-2.9831,0.8011,0.6943,22.516586,88.418190,1.17
-0.1592,0.0652,0.9060,-3.0212,0.5188,0.8545,22.516582,88.418190,0.13
-0.1562,0.0652,0.9023,-2.8381,0.8469,0.8698,22.516581,88.418198,0.37
-0.1626,0.0649,0.9067,-2.8687,0.7477,0.7401,22.516582,88.418190,1.44
-0.1594,0.0696,0.9036,-2.9755,0.7629,0.7401,22.516588,88.418182,2.26
-0.1543,0.0583,0.9043,-2.9297,0.6714,0.8698,22.516588,88.418175,1.80
-0.1560,0.0662,0.9031,-2.9068,0.9537,0.7782,22.516588,88.418175,1.39
-0.1565,0.0703,0.9033,-2.8992,0.9918,0.8011,22.516588,88.418175,2.72
-0.1655,0.0615,0.9094,-2.7771,0.6638,0.8316,22.516590,88.418175,1.56
-0.1614,0.0608,0.9014,-3.0060,0.7782,0.9689,22.516592,88.418167,1.39
-0.1550,0.0671,0.8945,-2.8000,0.6332,0.9232,22.516592,88.418175,0.54
-0.1575,0.0662,0.9036,-3.0060,0.7935,0.6561,22.516590,88.418175,0.59
-0.1631,0.0696,0.9111,-2.8992,0.6485,0.7629,22.516592,88.418175,1.20
-0.1541,0.0623,0.9048,-2.9831,0.8316,0.9918,22.516590,88.418182,0.09
-0.1567,0.0659,0.9084,-2.8992,0.6027,0.8163,22.516590,88.418182,0.43
-0.1531,0.0645,0.9019,-2.8992,0.6561,0.9995,22.516590,88.418182,1.50
-0.1653,0.0630,0.9031,-2.9831,0.6256,0.8774,22.516590,88.418182,1.69
-0.1570,0.0679,0.9053,-2.8839,0.5569,0.9308,22.516590,88.418175,1.50
-0.1646,0.0598,0.9102,-3.0518,0.8621,0.8163,22.516588,88.418182,0.44
-0.1511,0.0698,0.9077,-2.8839,0.6866,0.8392,22.516592,88.418175,0.44
-0.1572,0.0674,0.9104,-2.8610,0.5341,0.9613,22.516592,88.418175,0.74
-0.1650,0.0603,0.9075,-3.0136,0.7401,0.7172,22.516592,88.418175,0.81
-0.1599,0.0674,0.9063,-2.7847,0.7782,0.7706,22.516592,88.418175,0.20
-0.1631,0.0608,0.9033,-2.9068,0.6638,0.9460,22.516592,88.418175,1.33
-0.1594,0.0613,0.9048,-2.8687,0.8545,0.8392,22.516594,88.418167,2.74
-0.1582,0.0681,0.9097,-2.9449,0.6485,0.7782,22.516598,88.418167,1.98
-0.1577,0.0662,0.9053,-2.9068,0.6866,0.9155,22.516600,88.418175,0.67
-0.1606,0.0605,0.9080,-3.0060,0.7477,0.6866,22.516600,88.418175,1.22
-0.1555,0.0635,0.8948,-2.8839,0.7172,1.0452,22.516600,88.418175,0.22
-0.1616,0.0669,0.9045,-2.9907,0.6180,0.9842,22.516603,88.418175,1.39
-0.1555,0.0686,0.9119,-2.8915,0.6027,0.7172,22.516603,88.418182,0.54
-0.1628,0.0652,0.9080,-2.7390,0.6790,0.8087,22.516603,88.418182,0.59
-0.1594,0.0667,0.8979,-2.7313,0.6943,0.8392,22.516603,88.418182,0.65
-0.1562,0.0708,0.8989,-2.8915,0.6027,0.8698,22.516603,88.418182,1.26
-0.1570,0.0625,0.9036,-2.7847,0.6943,0.7935,22.516605,88.418175,1.98
-0.1553,0.0662,0.9033,-2.9602,0.7858,0.7706,22.516607,88.418175,0.70
-0.1519,0.0664,0.8953,-2.8458,0.5341,0.9232,22.516609,88.418167,2.09
-0.1580,0.0615,0.9031,-2.8305,0.6027,0.9537,22.516611,88.418175,1.57
-0.1592,0.0667,0.9055,-2.8839,0.7401,0.9232,22.516613,88.418175,0.70
-0.1575,0.0642,0.9019,-2.7695,0.6866,0.8316,22.516613,88.418175,0.06
-0.1619,0.0647,0.9072,-2.9678,0.5875,0.7401,22.516615,88.418175,1.94
-0.1582,0.0674,0.8992,-2.8000,0.6104,0.7477,22.516617,88.418175,1.43
-0.1545,0.0620,0.9060,-2.7161,0.6256,0.8240,22.516617,88.418175,1.02
-0.1584,0.0671,0.9128,-2.8305,0.7095,0.7935,22.516617,88.418175,0.59
-0.1541,0.0627,0.9031,-2.8763,0.8698,0.6714,22.516621,88.418175,1.35
-0.1570,0.0654,0.9067,-2.8992,0.6332,0.9537,22.516623,88.418167,1.80
-0.1616,0.0642,0.9014,-2.9526,0.7782,0.7706,22.516623,88.418167,0.98
-0.1560,0.0615,0.9067,-3.0136,0.6561,0.8621,22.516626,88.418167,1.26
-0.1582,0.0679,0.9004,-2.8305,0.5951,0.8011,22.516628,88.418159,0.59
-0.1541,0.0627,0.9019,-2.9373,0.6027,0.8392,22.516626,88.418159,0.33
-0.1653,0.0640,0.8970,-2.8915,0.7782,0.9155,22.516628,88.418159,0.50
-0.1633,0.0596,0.9070,-2.8305,0.6332,0.9308,22.516624,88.418175,1.56
-0.1584,0.0642,0.9033,-2.7390,0.5722,0.8545,22.516624,88.418175,1.26
-0.1570,0.0659,0.9023,-2.9678,0.7477,0.8240,22.516624,88.418182,1.61
-0.1528,0.0708,0.9060,-2.8076,0.5493,0.9766,22.516623,88.418182,0.17
-0.1548,0.0652,0.9084,-2.9449,0.4349,0.8469,22.516621,88.418190,0.28
-0.1565,0.0608,0.9160,-2.7466,0.7706,0.7858,22.516623,88.418182,0.48
-0.1511,0.0625,0.9089,-2.8305,0.9689,0.8850,22.516623,88.418182,0.15
-0.1582,0.0698,0.9080,-2.8915,0.8163,0.8011,22.516624,88.418182,1.46
-0.1587,0.0693,0.9006,-2.8992,0.6027,0.7629,22.516624,88.418182,1.59
-0.1545,0.0649,0.9077,-2.9602,0.6104,0.8392,22.516624,88.418182,0.13
-0.1528,0.0603,0.9011,-2.8381,0.7095,0.9384,22.516623,88.418182,0.46
-0.1499,0.0652,0.8999,-2.8610,0.7324,0.9079,22.516621,88.418190,0.41
-0.1594,0.0686,0.8977,-2.9221,0.9155,0.8621,22.516632,88.418182,1.33
-0.1582,0.0627,0.9048,-2.8534,0.6027,0.7629,22.516638,88.418175,3.15
-0.1545,0.0571,0.9006,-2.9144,0.7248,0.9384,22.516640,88.418167,1.26
-0.1509,0.0615,0.8967,-2.9144,0.6714,0.9384,22.516642,88.418167,0.74
-0.1570,0.0588,0.9063,-2.8152,0.4959,0.6180,22.516645,88.418167,1.39
-0.1528,0.0625,0.8979,-2.8381,0.6714,0.9460,22.516644,88.418175,0.61
-0.1511,0.0620,0.8997,-2.9907,0.7477,0.6638,22.516644,88.418175,0.07
-0.1621,0.0657,0.9031,-2.9221,0.7095,0.6485,22.516644,88.418175,0.17
-0.1550,0.0671,0.9058,-2.9678,0.6104,0.9613,22.516645,88.418175,1.56
-0.1577,0.0632,0.8953,-2.8000,0.5493,0.8163,22.516645,88.418175,1.35
-0.1609,0.0642,0.9011,-2.8458,0.7401,0.8163,22.516649,88.418175,1.59
-0.1599,0.0608,0.9004,-2.9373,0.7248,0.7706,22.516649,88.418175,0.28
-0.1555,0.0625,0.9045,-2.8763,0.7477,0.8163,22.516651,88.418182,0.31
-0.1628,0.0654,0.9009,-2.9984,0.6866,0.7248,22.516653,88.418182,1.35
-0.1550,0.0627,0.9045,-2.9297,0.7477,0.9232,22.516655,88.418175,2.43
-0.1584,0.0649,0.9121,-2.9144,0.7629,0.7858,22.516659,88.418175,1.67
-0.1584,0.0642,0.8997,-2.9449,0.7477,0.7935,22.516659,88.418175,0.78
-0.1589,0.0701,0.9072,-2.7847,0.6866,0.8316,22.516659,88.418182,1.57
-0.1562,0.0635,0.9026,-2.9526,0.6561,0.7935,22.516661,88.418182,0.65
-0.1611,0.0701,0.9009,-2.8076,0.7248,0.8240,22.516665,88.418175,0.37
-0.1614,0.0581,0.9009,-2.7771,0.6485,0.8316,22.516665,88.418182,2.65
-0.1628,0.0701,0.9053,-3.0060,0.7248,0.8621,22.516665,88.418190,1.41
-0.1560,0.0654,0.9036,-2.8152,0.5188,0.7935,22.516665,88.418190,0.89
-0.1567,0.0681,0.9072,-2.9144,0.7095,0.8850,22.516665,88.418190,0.57
-0.1580,0.0605,0.9021,-2.9984,0.5188,0.7172,22.516666,88.418182,1.35
-0.1545,0.0618,0.9102,-2.9449,0.8240,0.8316,22.516665,88.418182,0.85
-0.1633,0.0701,0.8960,-2.9373,0.5493,0.6256,22.516666,88.418182,0.61
-0.1606,0.0669,0.9063,-2.9144,0.6790,0.8698,22.516665,88.418190,0.15
-0.1580,0.0596,0.9075,-2.9678,0.8392,0.7858,22.516663,88.418182,0.52
-0.1597,0.0647,0.9019,-2.8381,0.5035,0.7095,22.516665,88.418182,0.02
-0.1533,0.0554,0.9087,-2.8610,0.6790,0.8698,22.516665,88.418182,0.43
-0.1543,0.0676,0.9055,-2.9755,0.7401,0.7629,22.516665,88.418182,0.13
-0.1650,0.0649,0.9023,-2.8687,0.6027,0.8087,22.516665,88.418182,0.09
-0.1523,0.0681,0.9094,-2.9984,0.8698,0.8621,22.516665,88.418182,0.59
-0.1592,0.0664,0.9006,-2.7313,0.5951,0.8926,22.516665,88.418182,1.19
-0.1555,0.0625,0.8997,-2.7466,0.6790,0.7858,22.516668,88.418175,2.89
-0.1609,0.0649,0.9106,-2.8381,0.9613,0.8926,22.516666,88.418175,2.11
-0.1548,0.0496,0.9036,-2.3575,0.8698,0.8774,22.516668,88.418167,1.69
-0.1597,0.0564,0.9009,0.3281,-0.9232,0.1221,22.516668,88.418167,0.11
-0.1606,0.0630,0.9121,-2.9297,0.8011,0.9766,22.516668,88.418175,0.35
-0.1609,0.0688,0.9045,-2.8915,0.5188,0.8163,22.516668,88.418175,0.52
-0.1682,0.0583,0.8982,-2.9068,0.7248,0.7477,22.516668,88.418175,0.70
-0.1587,0.0686,0.8926,-2.6779,0.6256,0.9384,22.516670,88.418182,0.11
-0.1570,0.0723,0.9014,-2.9449,0.6943,0.8163,22.516668,88.418182,0.89
-0.1626,0.0676,0.9053,-2.9449,0.7706,0.8011,22.516668,88.418182,1.02
-0.1611,0.0647,0.9038,-2.7084,0.8011,0.7019,22.516666,88.418182,1.37
-0.1560,0.0679,0.8992,-2.8229,0.9079,0.9613,22.516670,88.418182,1.02
-0.1667,0.0642,0.9153,-2.8610,0.6714,0.4883,22.516670,88.418190,0.78
-0.1628,0.0642,0.9080,-2.9221,0.5341,0.7629,22.516670,88.418190,0.48
-0.1582,0.0669,0.9106,-2.8458,0.7935,0.8316,22.516670,88.418190,1.65
-0.1594,0.0642,0.9070,-2.7008,0.7477,0.9003,22.516672,88.418190,1.61
-0.1575,0.0657,0.9033,-2.9678,0.6790,0.9460,22.516670,88.418190,0.57
-0.1682,0.0696,0.8970,-2.8229,0.7858,0.8469,22.516672,88.418190,1.09
-0.1729,0.0645,0.9026,-2.9221,0.9155,0.8392,22.516672,88.418198,1.15
-0.1604,0.0718,0.9058,-2.8992,0.6561,0.8392,22.516674,88.418190,1.81
-0.1638,0.0647,0.8994,-2.8610,0.4730,0.6180,22.516672,88.418190,0.22
-0.1575,0.0618,0.9077,-2.9144,0.6561,0.9079,22.516670,88.418198,1.07
-0.1611,0.0671,0.8967,-2.8992,0.6561,0.9384,22.516672,88.418198,0.93
-0.1582,0.0649,0.8948,-2.7008,0.6790,0.8774,22.516668,88.418198,0.44
-0.1616,0.0654,0.8997,-2.6855,0.8316,0.7858,22.516668,88.418198,0.43
-0.1604,0.0684,0.8960,-3.0518,0.6790,0.6866,22.516670,88.418198,0.06
-0.1558,0.0669,0.9072,-2.8610,0.6866,0.9766,22.516672,88.418198,1.02
-0.1633,0.0667,0.9067,-2.8839,0.7172,0.6866,22.516674,88.418205,2.59
-0.1670,0.0662,0.9050,-2.7924,0.7172,0.8316,22.516676,88.418205,2.15
-0.1631,0.0662,0.9070,-2.8687,0.8316,0.8698,22.516676,88.418205,0.69
-0.1631,0.0615,0.9094,-2.8381,0.8392,0.9995,22.516678,88.418205,0.80
-0.1572,0.0688,0.8967,-2.6321,0.5417,0.6485,22.516680,88.418213,0.57
-0.1646,0.0464,0.8936,-1.8082,-0.5493,0.7706,22.516682,88.418213,1.50
-0.1306,0.0188,0.8975,-4.8218,2.6474,1.3504,22.516680,88.418213,1.72
-0.0989,-0.1614,0.9385,2.4109,-14.9002,7.2098,22.516680,88.418213,0.07
-0.1685,0.0339,1.0054,-2.3041,-19.9814,1.7242,22.516672,88.418213,2.02
-0.0610,0.0735,0.9272,-2.0218,-0.2365,0.4349,22.516668,88.418213,3.02
0.1082,-0.2217,0.8787,-2.8305,-51.9638,119.4763,22.516666,88.418213,0.52
-0.0669,0.1018,0.9011,0.1373,0.1526,-2.8458,22.516665,88.418221,1.19
-0.1775,0.2361,0.8486,-3.3493,17.5705,-3.8528,22.516666,88.418228,1.43
-0.0784,0.2236,0.9883,-4.5242,16.7542,-19.5313,22.516657,88.418228,1.30
-0.0784,0.2092,0.8994,-3.1052,-0.0458,1.1444,22.516632,88.418221,5.33
-0.1042,0.2219,0.8916,-3.4103,0.6866,1.2131,22.516632,88.418221,5.33
-0.0989,0.2100,0.9006,-10.1318,5.5847,0.3967,22.516613,88.418228,3.89
-0.1938,0.2166,0.9761,-49.7742,5.0201,30.0446,22.516619,88.418228,0.50
0.2686,-0.2966,0.7402,22.0184,39.7110,-3.0289,22.516603,88.418228,2.69
0.3357,-0.2458,0.8047,-13.9542,-97.3587,43.3426,22.516596,88.418228,1.13
0.4460,-0.6091,1.2522,38.5056,-85.6476,37.8342,22.516596,88.418236,0.72
0.3325,-0.0225,0.8982,8.7891,1.1292,-0.9766,22.516605,88.418243,2.57
0.4102,0.0859,0.8430,-8.8501,9.7809,-8.6746,22.516603,88.418251,0.93
0.3257,-0.0823,0.9431,-9.9869,7.4081,-14.0457,22.516600,88.418259,2.02
0.2959,-0.7529,1.5884,-30.3726,-13.7024,-127.3041,22.516596,88.418259,1.67
0.8569,0.0583,0.7095,139.7552,-63.8580,138.0768,22.516605,88.418274,2.17
0.2300,0.0603,0.7910,27.7557,10.0327,20.8282,22.516607,88.418266,2.56
-0.0635,-0.0159,1.0203,5.5237,-5.8441,31.7078,22.516607,88.418266,2.56
0.1633,0.0352,0.6592,11.8942,29.8767,35.8047,22.516607,88.418266,2.56
0.3071,-0.1008,0.6804,-28.3432,3.2120,-45.1279,22.516607,88.418266,2.56
0.5645,0.0208,0.6218,31.3034,-4.8599,55.9082,22.516607,88.418266,2.56
-0.2854,0.0483,0.9502,-0.6027,1.4572,60.4324,22.516607,88.418266,2.56
0.4487,-0.1760,0.7825,-22.6135,-1.8921,-85.4416,22.516607,88.418266,2.56
0.2158,0.1797,0.9382,33.8287,3.0594,-12.1078,22.516607,88.418266,2.56
0.6167,-0.0583,0.6265,-51.2619,4.5624,-76.9577,22.516586,88.418228,4.57
-0.0925,0.2563,0.7695,-9.8114,2.5330,-14.2365,22.516586,88.418228,4.57
0.4761,0.0503,0.9280,5.5466,11.7340,-26.5427,22.516586,88.418228,4.57
0.2781,0.1167,0.7791,-4.0588,4.7379,-23.6206,22.516586,88.418228,4.57
-0.1003,0.0945,1.4036,-6.1951,-17.6086,-14.5187,22.516586,88.418228,4.57
0.6311,-0.0059,0.7146,18.8522,33.3786,54.1382,22.516586,88.418228,4.57
0.2859,0.2529,0.8640,-2.7161,24.2691,8.6365,22.516586,88.418228,4.57
0.2502,-0.0859,1.0061,13.9694,31.3187,63.9191,22.516586,88.418228,4.57
-0.2402,-0.1147,0.8103,-26.7105,91.0110,-104.3854,22.516586,88.418228,4.57
0.4734,-0.4041,1.0068,-16.4719,27.5574,-14.3814,22.516586,88.418228,4.57
0.4778,0.2764,0.7341,-46.3791,19.6533,-152.9160,22.516586,88.418228,4.57
0.3071,-0.0842,0.7751,-7.8583,-3.9291,-92.8421,22.516586,88.418228,4.57
-0.1638,-0.0342,0.8369,-7.1869,-2.8915,-46.4401,22.516586,88.418228,4.57
0.1794,-0.0825,0.8838,24.7726,12.3825,92.3462,22.516586,88.418228,4.57
0.0117,-0.1128,0.8340,-11.6501,-11.4517,15.9836,22.516586,88.418228,4.57
-0.1675,-0.0830,0.8752,-8.1329,-12.0239,-66.4673,22.516586,88.418228,4.57
-0.0237,0.2798,0.9656,43.8232,21.0800,32.1808,22.516586,88.418228,4.57
0.4355,0.3757,1.2722,-42.3584,13.8626,-50.6363,22.516586,88.418228,4.57
0.2595,0.0188,0.7837,-3.7460,16.0751,-7.7896,22.516586,88.418228,4.57
0.2876,0.0190,0.8740,-2.8687,15.4495,12.5732,22.516586,88.418228,4.57
0.1553,-0.2148,0.9065,-6.5155,-9.1400,16.2582,22.516586,88.418228,4.57
-0.1106,-0.0139,0.7842,9.0256,-10.6201,18.0435,22.516586,88.418228,4.57
-0.0645,-0.0518,0.5254,9.1858,-15.7471,32.0969,22.516586,88.418228,4.57
-0.0916,-0.1138,0.3809,-9.1019,9.1782,20.9427,22.516586,88.418228,4.57
-0.1338,-0.1624,0.3315,-21.7590,5.1498,-2.9068,22.516586,88.418228,4.57
-0.0889,-0.1531,0.7217,-19.6457,-9.2163,50.7889,22.516586,88.418228,4.57
0.1157,-0.0027,0.9087,-9.6970,-9.9716,11.8790,22.516586,88.418228,4.57
-0.1028,-0.0874,0.8232,1.1520,-11.2228,-49.7971,22.516586,88.418228,4.57
-0.1245,-0.0166,0.8542,-1.4420,6.4392,-67.8864,22.516586,88.418228,4.57
0.0251,0.0940,0.7617,17.4332,6.1493,-47.7829,22.516586,88.418228,4.57
0.0574,0.0811,0.9302,6.4087,5.5923,-1.8616,22.516586,88.418228,4.57
0.2134,-0.0435,0.8337,-5.9967,7.4310,-6.3629,22.516586,88.418228,4.57
0.2754,-0.1965,0.8562,-6.8741,4.3564,-24.7421,22.516586,88.418228,4.57
0.0750,0.0789,0.5447,5.2032,16.0828,-6.6681,22.516586,88.418228,4.57
0.2266,-0.1289,0.3474,10.3989,9.2850,13.1607,22.516586,88.418228,4.57
0.2810,-0.1860,0.4460,-19.8593,-4.6616,-12.8479,22.516586,88.418228,4.57
0.1096,-0.0107,0.8188,-14.9002,2.7924,-56.8085,22.516586,88.418228,4.57
0.0732,-0.2153,0.7192,-8.8577,7.2937,-60.5621,22.516586,88.418228,4.57
0.0945,-0.1121,0.7612,-9.9487,5.1346,-47.2488,22.516586,88.418228,4.57
0.2253,0.0288,0.8496,3.7994,1.5640,25.1846,22.516586,88.418228,4.57
0.1450,0.2856,1.5210,15.3122,18.6615,6.3782,22.516586,88.418228,4.57
0.0466,-0.3315,0.7759,-40.0009,22.0566,-65.2313,22.516586,88.418228,4.57
0.0674,0.1465,0.7795,18.7683,6.7673,-6.6452,22.516586,88.418228,4.57
0.1096,0.0356,0.6912,4.4937,4.1504,31.9824,22.516586,88.418228,4.57
0.2666,-0.0415,0.8201,4.0283,20.3094,-2.5787,22.516586,88.418228,4.57
0.0530,-0.2581,1.5403,-44.4870,-22.1176,-24.9481,22.516586,88.418228,4.57
0.1230,-0.2615,1.1287,-11.3678,-11.0550,4.1275,22.516586,88.418228,4.57
0.0967,-0.1597,0.1921,-3.8300,5.3253,11.7187,22.516586,88.418228,4.57
-0.0320,-0.1265,0.6543,12.6038,-2.0142,15.2588,22.516586,88.418228,4.57
-0.0818,0.0186,0.4954,7.1182,-2.7161,-25.2075,22.516586,88.418228,4.57
0.1018,-0.2280,0.5657,1.6556,-0.6104,-20.1797,22.516586,88.418228,4.57
0.3950,-0.0498,0.9556,-9.5825,-0.8163,-73.4177,22.516586,88.418228,4.57
0.1082,-0.2419,1.6213,-27.7023,-2.9144,18.7225,22.516586,88.418228,4.57
0.2573,-0.0808,0.8665,-19.4550,15.5334,16.1133,22.516586,88.418228,4.57
0.1743,0.1709,0.8770,-0.6256,3.6850,-3.3569,22.516586,88.418228,4.57
0.1748,0.1277,0.9036,-3.1052,-4.4937,9.7580,22.516586,88.418228,4.57
0.3867,0.1416,0.8005,-9.8267,4.0512,54.7409,22.516586,88.418228,4.57
0.1626,-0.0713,0.9294,-8.0872,-9.4604,-113.2431,22.517067,88.418434,5.48
-0.0168,0.0303,0.9187,-2.4185,-0.1450,-53.5583,22.517050,88.418526,3.72
0.3545,0.1482,0.8599,5.6076,-10.5133,-12.5046,22.517031,88.418564,1.65
0.2192,0.2083,0.8745,-15.6250,-1.9150,-1.6251,22.517036,88.418571,3.78
0.2712,0.1926,0.8081,12.6266,0.7935,17.2729,22.517046,88.418587,0.70
0.4255,-0.0305,1.0349,-9.5673,-53.4592,-41.7023,22.517029,88.418587,0.87
0.3572,-0.7207,1.0493,2.9144,-183.3191,-58.0673,22.517027,88.418602,1.50
0.4541,0.4353,0.8120,6.7596,-7.5531,-119.3771,22.517036,88.418610,3.43
0.4111,0.5884,0.6562,48.4924,73.2193,63.8580,22.517033,88.418610,1.52
-0.1973,0.8406,0.4238,-1.8539,2.1439,0.1678,22.517031,88.418617,0.72
-0.1829,0.8296,0.4258,-2.7924,0.4883,0.5341,22.517027,88.418617,1.46
-0.1541,0.8232,0.4116,-4.0359,-1.2207,-3.4409,22.517021,88.418617,1.13
-0.2434,0.7358,0.2869,-2.9755,14.6103,2.2736,22.517010,88.418617,0.63
-0.2573,0.8232,0.4687,-2.2888,-2.1973,0.1526,22.517012,88.418625,0.44
-0.2151,0.7878,0.4539,-0.6866,1.6708,0.5341,22.517023,88.418648,0.96
-0.2253,0.8064,0.4453,-2.7313,0.8698,0.9155,22.517027,88.418671,1.11
-0.2261,0.8123,0.4443,-2.9678,0.4578,0.7782,22.517027,88.418686,1.48
-0.2207,0.7280,0.2864,1.0300,-4.3259,-8.1482,22.517014,88.418694,1.00
-0.2295,0.8157,0.4536,-2.2583,0.3815,0.9003,22.517014,88.418701,2.09
-0.2263,0.8025,0.4500,-2.9144,0.4196,0.4654,22.517012,88.418694,1.28
-0.2642,0.8506,0.4448,-4.7150,1.1063,4.2191,22.517017,88.418709,3.04
-0.2349,0.8064,0.4597,-3.2043,0.4120,0.5493,22.517002,88.418694,1.02
-0.2285,0.7991,0.4646,-2.4643,1.5564,2.8000,22.516994,88.418686,1.81
-0.2397,0.7983,0.4473,-2.7924,0.8011,0.8087,22.516994,88.418686,1.81
-0.2385,0.8672,0.3960,-3.5248,1.4343,1.2360,22.516994,88.418686,1.81
-0.2412,0.7930,0.4531,-2.8915,0.6561,0.6638,22.516994,88.418686,1.81
-0.2361,0.8022,0.4536,-2.9602,1.4191,0.6561,22.516994,88.418686,1.81
-0.2383,0.8364,0.4453,-1.2283,8.0566,0.3357,22.517000,88.418701,0.65
-0.0845,0.9597,0.3389,4.7073,0.4044,8.5449,22.516983,88.418732,4.17
-0.1692,0.8643,0.3955,-3.1891,0.6866,0.6561,22.517004,88.418755,4.20
-0.1677,0.8547,0.3940,-2.8534,0.6485,0.7172,22.517002,88.418747,1.24
0.2825,1.3430,0.4143,-5.2643,-8.0490,57.9224,22.516989,88.418724,4.19
-0.0093,0.8931,0.4653,-13.3286,-4.6310,-15.4343,22.516989,88.418701,7.00
0.4495,0.7871,0.2751,5.2567,14.5340,-13.1073,22.516975,88.418678,7.70
0.4829,0.4939,0.4199,5.1804,2.4872,1.3580,22.516975,88.418678,7.70
0.5940,0.6445,0.3462,3.0136,-6.2561,-19.6381,22.516975,88.418678,7.70
0.6362,0.6770,0.4219,-4.7379,-2.4033,-1.0834,22.516975,88.418678,7.70
0.6135,0.6484,0.4563,-17.2272,-6.1874,-0.4120,22.516975,88.418678,7.70
0.5620,0.6604,0.4607,-3.7384,0.7553,0.0534,22.516975,88.418678,7.70
0.5574,0.6636,0.4739,-3.1815,1.2360,1.0529,22.516970,88.418610,1.57
0.5503,0.6692,0.4819,-2.6703,1.1826,0.8774,22.516960,88.418625,0.52
0.5500,0.6646,0.4785,-2.8992,0.7401,0.8011,22.516956,88.418625,1.57
0.5593,0.6606,0.4687,-2.9755,0.3967,0.7095,22.516954,88.418655,2.04
0.5488,0.6638,0.4832,-2.7924,0.8011,0.8545,22.516947,88.418663,0.83
0.5542,0.6658,0.4788,-3.0518,0.6485,0.6714,22.516962,88.418686,1.48
0.5493,0.6592,0.4771,-3.0441,0.8926,0.8926,22.516973,88.418709,1.43
0.5498,0.6694,0.4673,-2.7771,0.7324,0.7629,22.516983,88.418739,1.07
0.5466,0.6587,0.4788,-2.8152,0.6714,0.7172,22.517004,88.418762,2.70
0.5554,0.6699,0.4719,-3.2654,0.7324,0.5875,22.516996,88.418777,1.22
0.5522,0.6641,0.4761,-2.9144,0.7095,0.7248,22.516991,88.418724,5.30
0.5520,0.6660,0.4836,-3.0060,0.6943,0.7782,22.516993,88.418716,4.15
0.5476,0.6646,0.4822,-2.7313,0.9232,1.6403,22.516993,88.418709,4.13
0.5557,0.6602,0.4675,-2.9602,0.6485,0.9079,22.516994,88.418709,1.67
0.5398,0.6646,0.4739,-2.9526,0.6943,0.9460,22.516991,88.418694,3.22
0.5449,0.6599,0.4780,-2.9449,0.7782,0.8621,22.516987,88.418694,0.33
0.5400,0.6650,0.4775,-3.0975,0.5341,0.6409,22.516989,88.418701,1.78
0.5452,0.6655,0.4712,-2.9526,0.7095,0.7401,22.516972,88.418678,4.30
0.5515,0.6692,0.4712,-2.9755,0.7553,0.7858,22.516966,88.418678,1.44
0.5420,0.6646,0.4805,-2.9907,0.7553,0.8926,22.516964,88.418678,0.72
0.5449,0.6628,0.4766,-3.0212,0.7172,0.7782,22.516964,88.418671,0.48
0.5437,0.6636,0.4751,-2.9449,0.6332,0.7935,22.516962,88.418655,3.91
0.5422,0.6675,0.4780,-2.9678,0.8240,0.8392,22.516960,88.418640,5.87
0.5586,0.6807,0.4829,-2.8381,1.3504,0.3662,22.516966,88.418640,3.57
0.5381,0.6584,0.4724,-2.7771,1.1673,0.4272,22.516968,88.418633,3.17
0.5312,0.6589,0.4849,-2.7161,0.6332,0.6409,22.516970,88.418633,2.59
0.5264,0.6812,0.4758,-2.9678,0.7553,0.9232,22.516970,88.418625,3.67
0.5361,0.6821,0.4734,-3.8376,1.1520,1.3733,22.516970,88.418625,1.17
0.5398,0.6448,0.4661,-3.4256,0.6790,-0.8469,22.516970,88.418625,0.50
0.5479,0.6665,0.4756,-2.9602,0.7477,0.9613,22.516968,88.418625,1.56
0.5220,0.5896,0.4929,-4.4250,-1.1292,-3.9368,22.516966,88.418610,3.83
0.5347,0.6729,0.4778,-2.8610,0.6409,1.0147,22.516960,88.418610,1.72
0.5356,0.6672,0.4775,-2.9907,0.4425,0.7324,22.516956,88.418610,0.46
0.5449,0.6650,0.4761,-3.0289,0.7706,0.9079,22.516954,88.418594,1.09
0.5383,0.6697,0.4763,-3.0212,0.7706,0.7935,22.516954,88.418594,1.46
0.5398,0.6724,0.4788,-2.8076,0.6561,0.7477,22.516954,88.418579,2.43
0.5356,0.6726,0.4790,-2.8839,0.8087,0.8850,22.516953,88.418579,0.89
0.5330,0.6672,0.4707,-2.8610,0.5035,0.5341,22.516953,88.418571,1.50
0.5244,0.6797,0.4890,-2.9221,0.8926,1.1520,22.516951,88.418571,2.33
0.5349,0.6680,0.4722,-2.9068,0.7019,0.8316,22.516949,88.418571,2.32
0.5327,0.6682,0.4761,-3.0365,0.8011,0.7172,22.516947,88.418571,1.81
0.5332,0.6672,0.4819,-3.0670,0.9995,0.8926,22.516945,88.418571,1.22
0.4875,0.7034,0.7405,-15.5182,-2.0370,11.2381,22.516945,88.418564,1.22
0.5569,0.6704,0.4766,-1.8692,3.3264,7.2403,22.516943,88.418564,1.48
0.5801,0.6763,0.4746,-2.2812,0.8011,2.2583,22.516939,88.418571,0.48
0.5752,0.6848,0.4680,-2.6169,-0.0839,-0.7553,22.516935,88.418571,0.04
0.5554,0.6829,0.4658,-1.8387,-0.3281,-1.3962,22.516935,88.418571,0.28
0.5156,0.6562,0.4929,-4.8141,1.2131,2.0447,22.516935,88.418571,0.93
0.5393,0.6917,0.5210,-4.3182,1.2741,3.5477,22.516933,88.418564,0.69
0.5100,0.6504,0.5000,-5.8441,1.2054,1.3275,22.516935,88.418556,1.11
0.5344,0.6404,0.4570,-1.1597,0.2899,-0.1297,22.516935,88.418549,1.52
0.5356,0.6831,0.5090,-5.3024,1.8845,3.1204,22.516935,88.418549,1.30
0.5615,0.7405,0.5034,-3.3875,1.2817,3.0060,22.516935,88.418541,1.30
0.5171,0.6267,0.4788,-6.0425,2.2812,3.3493,22.516935,88.418541,0.96
0.5342,0.6455,0.4983,-3.0212,1.3275,2.5558,22.516937,88.418533,1.15
0.5586,0.6765,0.5115,-2.8229,0.7477,0.9460,22.516939,88.418533,1.15
0.5540,0.6875,0.4736,-0.8545,1.6632,2.1896,22.516939,88.418533,0.59
0.5164,0.6899,0.4736,-1.0529,1.9531,1.3733,22.516939,88.418533,0.43
0.5139,0.6799,0.5193,0.7629,3.4561,2.6398,22.516939,88.418533,0.28
0.5730,0.6445,0.4563,0.2441,6.4392,7.2937,22.516939,88.418533,1.13
0.5515,0.6619,0.4773,4.5547,4.6234,6.1035,22.516943,88.418526,2.19
0.5308,0.5374,0.4917,3.2501,9.9640,12.7258,22.516945,88.418526,2.37
0.5542,0.6658,0.4519,1.3046,3.0136,-0.9003,22.516947,88.418518,2.76
0.6272,0.7070,0.5208,1.2970,3.6011,5.4398,22.516951,88.418526,2.07
0.5535,0.6721,0.3979,0.6104,0.4425,1.0147,22.516958,88.418526,2.56
0.5593,0.6313,0.4839,-0.9003,-0.4578,-1.5717,22.516960,88.418526,2.28
0.6206,0.7036,0.4617,-1.8463,0.3357,2.5787,22.516966,88.418518,2.28
0.5576,0.6724,0.4844,-3.7918,0.5798,4.7836,22.516968,88.418518,1.94
0.5371,0.6545,0.4519,-3.5019,0.4959,-4.9515,22.516970,88.418526,1.56
0.6030,0.6956,0.4128,-2.4567,0.9460,-0.5646,22.516966,88.418518,2.63
0.6094,0.7168,0.4084,-2.7542,0.1450,0.4654,22.516962,88.418510,2.41
0.5654,0.6621,0.4788,-4.2725,0.4883,-1.2741,22.516964,88.418503,2.11
0.5657,0.6526,0.4731,-1.9913,-0.1221,-1.6251,22.516966,88.418495,1.96
0.5439,0.6528,0.4590,-2.0599,2.0218,1.0452,22.516968,88.418495,1.80
0.5500,0.7063,0.4321,3.3722,4.2801,2.6016,22.516966,88.418503,1.26
0.4893,0.6006,0.5156,-1.2436,9.9564,8.5526,22.516958,88.418510,0.30
0.4851,0.6372,0.4812,4.4250,8.8196,7.9803,22.516958,88.418526,3.19
0.4968,0.6455,0.4841,1.8311,2.4872,-0.9918,22.516956,88.418533,2.44
0.5488,0.6785,0.4832,-1.7700,0.6027,3.4256,22.516956,88.418533,1.17
0.4893,0.6541,0.5146,-4.4785,0.5722,-0.5569,22.516962,88.418549,0.02
0.5388,0.6899,0.5415,-3.5324,0.7248,3.6545,22.516960,88.418556,0.65
0.5037,0.6116,0.4619,-3.2120,2.0905,0.0076,22.516960,88.418549,0.26
0.4880,0.6887,0.4570,-3.8223,1.2436,0.5875,22.516962,88.418556,0.76
0.5417,0.6597,0.4822,-1.8616,0.4196,-0.9918,22.516964,88.418556,0.17
0.5017,0.6375,0.5342,-4.8370,1.5945,2.5482,22.516966,88.418556,0.06
0.5295,0.7600,0.4771,-3.3875,3.4409,2.1210,22.516968,88.418556,0.17
0.5142,0.6650,0.4961,4.6844,11.3449,11.5356,22.516966,88.418556,0.48
0.4912,0.6704,0.5566,-2.1591,7.0114,4.9820,22.516966,88.418556,0.28
0.5605,0.7307,0.4971,0.7553,3.5706,6.6910,22.516964,88.418556,0.78
0.5090,0.6763,0.4685,-2.6093,4.0207,8.7814,22.516968,88.418556,1.13
0.5730,0.7327,0.4661,1.9836,1.7319,-0.2441,22.516972,88.418564,1.67
0.5850,0.7290,0.4221,1.6785,3.8681,4.1885,22.516975,88.418564,1.89
0.4800,0.6016,0.5024,-3.9749,3.4485,3.9291,22.516975,88.418564,1.07
0.5420,0.6655,0.5496,-3.5324,0.6714,3.5172,22.516973,88.418564,1.17
0.5305,0.7034,0.4929,-2.2659,-0.6790,-0.9995,22.516972,88.418556,1.09
0.4993,0.6653,0.4751,-3.5095,0.7401,0.2670,22.516970,88.418556,0.94
0.4885,0.6360,0.4885,-3.7155,3.0823,-0.8545,22.516968,88.418556,0.44
0.4766,0.6455,0.5005,-4.1885,1.2360,0.4501,22.516966,88.418556,0.13
0.5042,0.6831,0.5029,-3.6697,1.4877,2.9907,22.516962,88.418556,0.93
0.5029,0.7004,0.4985,-3.5324,1.0147,1.8539,22.516960,88.418556,0.63
0.4846,0.6514,0.4910,-4.1656,0.9384,-0.9003,22.516958,88.418556,0.15
0.5476,0.7214,0.4600,-0.6714,0.0992,0.4807,22.516956,88.418549,0.17
0.5396,0.7341,0.4661,-0.7248,-0.1144,-0.3586,22.516954,88.418549,0.22
0.5005,0.6416,0.5146,-4.9515,0.6714,1.5488,22.516953,88.418549,0.22
0.5027,0.6289,0.4685,-3.5019,1.1597,0.7019,22.516951,88.418549,0.37
0.5347,0.7661,0.4895,-1.2741,-0.0305,1.4725,22.516947,88.418549,0.41
0.5469,0.7485,0.4575,0.1831,-0.5341,-1.9608,22.516945,88.418549,0.74
0.5410,0.7673,0.4863,-1.4496,-0.2670,0.0458,22.516941,88.418549,0.63
0.4868,0.6465,0.4658,-2.5101,0.6638,-0.2975,22.516939,88.418549,0.37
0.4907,0.6321,0.4719,-3.8452,1.5182,3.2654,22.516937,88.418549,0.37
0.4836,0.6558,0.4458,-2.1439,0.6485,1.4114,22.516937,88.418533,0.28
0.5032,0.7070,0.4751,-2.6627,-0.0458,-2.3956,22.516937,88.418518,0.31
0.5466,0.6804,0.4858,-3.6163,1.2131,2.7390,22.516935,88.418518,0.15
0.4875,0.6399,0.4824,-3.2272,1.9302,3.8986,22.516935,88.418510,0.09
0.4878,0.6765,0.4839,-2.5101,0.9995,0.0458,22.516933,88.418503,0.22
0.5225,0.7129,0.4836,-2.4033,-0.3891,-2.4948,22.516933,88.418495,0.02
0.5339,0.6680,0.4854,-3.0594,2.4414,6.1874,22.516932,88.418495,0.04
0.4827,0.7173,0.4753,-2.2964,-0.0763,-2.4796,22.516932,88.418495,0.04
0.5107,0.7151,0.4707,-1.6708,-0.4120,-2.5253,22.516930,88.418495,0.06
0.5308,0.7109,0.4827,-3.0060,0.3052,-1.0529,22.516930,88.418495,0.06
0.5061,0.6492,0.4805,-3.0823,1.9073,4.5776,22.516930,88.418488,0.07
0.4839,0.7039,0.4673,-2.7084,-0.5569,-4.0588,22.516930,88.418488,0.06
0.5437,0.7300,0.4856,-3.3493,0.5417,-0.2975,22.516932,88.418480,0.22
0.5417,0.7012,0.5022,-3.6469,0.9308,2.4719,22.516932,88.418472,0.07
0.5212,0.6470,0.4946,-3.0518,2.0905,5.8517,22.516932,88.418472,0.04
0.4683,0.6414,0.4927,-3.0060,1.1673,0.5646,22.516932,88.418465,0.02
0.5093,0.7056,0.4678,-2.2125,-0.2441,-2.2430,22.516932,88.418465,0.24
0.5432,0.7007,0.4788,-2.1286,-0.4654,-1.0452,22.516932,88.418465,0.41
0.5149,0.6658,0.4722,-2.1591,1.4267,3.8223,22.516932,88.418457,0.02
0.4929,0.6924,0.4758,-2.5406,-0.8469,-4.1733,22.516932,88.418457,0.09
0.5549,0.6765,0.5007,-3.3340,1.1826,2.7008,22.516933,88.418449,0.54
0.4795,0.6943,0.4768,-2.4796,0.3662,0.1526,22.516933,88.418449,0.09
0.5466,0.6787,0.5088,-3.6392,0.9689,1.3428,22.516933,88.418449,0.22
0.4670,0.6687,0.4602,-2.1667,0.0992,1.2512,22.516933,88.418449,0.19
0.5322,0.6665,0.4727,-1.7929,1.3351,4.9057,22.516933,88.418442,0.93
0.5247,0.6965,0.4978,-4.6463,0.6866,-2.2659,22.516933,88.418442,0.39
0.4915,0.7168,0.4568,-2.5253,-0.8469,-1.5488,22.516933,88.418442,0.13
0.5066,0.7229,0.4717,-2.0142,0.1984,0.1755,22.516933,88.418434,0.06
0.5247,0.6477,0.4766,-1.6708,1.0529,2.5406,22.516933,88.418434,0.13
0.5139,0.6992,0.4932,-3.9139,0.3433,-1.6174,22.516933,88.418434,0.22
0.5071,0.7180,0.4585,-1.6022,-0.3510,-1.6403,22.516933,88.418434,0.11
0.5386,0.6785,0.4763,-2.7847,1.3504,3.5095,22.516933,88.418427,0.09
0.5244,0.7014,0.4985,-4.6844,0.9155,-1.0681,22.516933,88.418427,0.11
0.4956,0.7217,0.4570,-1.6251,-1.0529,-1.6708,22.516933,88.418427,0.20
0.5369,0.6521,0.4644,-2.9526,1.3046,2.3270,22.516933,88.418419,0.33
0.5027,0.6963,0.5103,-3.5172,0.3738,-1.3885,22.516933,88.418419,0.22
0.4976,0.6833,0.4734,-2.6627,1.0071,2.5940,22.516933,88.418411,0.11
0.5459,0.6567,0.5002,-3.2578,1.8463,2.7008,22.516933,88.418411,0.07
0.4863,0.6970,0.4768,-3.3798,0.2365,-1.0910,22.516933,88.418404,0.20
0.5032,0.7122,0.4797,-2.7847,0.4044,1.0910,22.516933,88.418404,0.19
0.5029,0.7036,0.5032,-3.2654,1.1902,1.6174,22.516932,88.418396,0.11
0.4929,0.7231,0.4465,-2.0752,-1.4648,-2.5635,22.516932,88.418396,0.07
0.4929,0.7136,0.4714,-2.2736,0.0000,0.0916,22.516932,88.418396,0.07
0.5020,0.7168,0.4744,-1.7090,-0.0992,1.0834,22.516932,88.418388,0.17
0.5168,0.6802,0.4866,-1.9836,0.7782,2.6245,22.516932,88.418388,0.06
0.5244,0.7051,0.4717,-2.4261,0.8316,2.6398,22.516932,88.418388,0.13
0.5244,0.6909,0.4822,-2.1744,0.7324,2.2964,22.516932,88.418381,0.17
0.5098,0.6921,0.4824,-2.3956,1.3657,3.2349,22.516932,88.418381,0.20
0.5259,0.6716,0.4795,-2.4567,1.0910,2.0599,22.516932,88.418381,0.17
0.5208,0.6565,0.4895,-2.0523,0.8087,1.8616,22.516932,88.418373,0.13
0.5203,0.6836,0.4795,-2.4643,1.0834,2.4567,22.516930,88.418373,0.19
0.5183,0.6941,0.4783,-1.7319,0.6332,2.0142,22.516930,88.418373,0.22
0.5083,0.7251,0.4666,-2.3270,0.3662,2.1210,22.516930,88.418373,0.17
0.4949,0.7156,0.4790,-2.3117,-0.0610,0.2670,22.516930,88.418365,0.15
0.5098,0.6902,0.4861,-3.8376,0.3967,-1.5564,22.516930,88.418365,0.07
0.5220,0.6899,0.4785,-3.7384,0.9613,0.0458,22.516928,88.418365,0.04
0.5251,0.6460,0.4929,-2.8839,1.6479,2.8534,22.516928,88.418365,0.07
0.5293,0.6519,0.5015,-3.1738,1.9913,3.4027,22.516928,88.418358,0.09
0.5115,0.6553,0.4746,-2.5787,1.0986,2.7237,22.516928,88.418358,0.07
0.5029,0.6975,0.4648,-2.1362,0.1907,0.3815,22.516928,88.418358,0.02
0.5110,0.6814,0.4753,-3.1052,-0.1984,-2.2354,22.516926,88.418358,0.06
0.5259,0.6765,0.4890,-3.3722,0.6409,-0.1984,22.516926,88.418358,0.09
0.5254,0.6382,0.4929,-3.0365,1.9913,3.4943,22.516926,88.418350,0.07
0.5054,0.6453,0.4883,-3.0212,1.6861,2.7618,22.516926,88.418350,0.07
0.5090,0.7061,0.4966,-2.9907,0.5188,0.4120,22.516924,88.418350,0.06
0.5220,0.6606,0.4785,-3.2120,1.4954,1.5640,22.516924,88.418350,0.11
0.5139,0.7446,0.4636,-1.8005,0.1678,0.7324,22.516924,88.418350,0.06
0.5854,0.7585,0.4709,0.0839,1.8997,-0.8545,22.516924,88.418343,0.13
0.4712,0.6772,0.5439,0.2899,1.4038,7.3700,22.516920,88.418350,1.89
0.4883,0.7112,0.4902,-4.3259,0.2670,-1.2512,22.516916,88.418350,1.74
0.4939,0.6641,0.4180,-2.3880,1.8463,4.0359,22.516916,88.418358,0.76
0.5042,0.8210,0.3071,-0.1068,1.2283,-1.5411,22.516920,88.418358,0.83
0.5298,0.7771,0.3284,7.4158,8.3160,4.1504,22.516930,88.418350,2.54
0.4822,0.7671,0.3994,-0.5569,0.1831,-4.0588,22.516943,88.418343,4.91
0.5398,0.6907,0.3408,-3.4485,-5.5161,-11.4517,22.516954,88.418327,6.06
0.5513,0.6475,0.5115,-9.3994,-7.3776,0.9689,22.516960,88.418312,3.98
0.6887,0.7395,0.5188,-8.6594,-4.1428,-1.4114,22.516985,88.418327,8.98
0.7227,0.8184,0.5481,-10.6049,-4.4098,-5.4016,22.517006,88.418335,8.04
0.5029,0.7864,0.4473,4.2267,-5.6534,-9.5291,22.517027,88.418343,8.41
0.6006,0.7036,0.2651,-0.9995,1.7242,-8.2092,22.517054,88.418350,10.11
0.2942,0.6680,0.5034,-14.4272,6.8588,6.1264,22.517078,88.418358,10.61
0.4395,0.6965,0.5400,3.7918,11.0550,14.4272,22.517107,88.418365,11.30
0.3320,0.6450,0.4727,0.8469,18.9667,4.3411,22.517126,88.418373,6.26
0.2405,0.6416,0.5925,3.9520,13.4354,20.6070,22.517151,88.418365,11.59
0.3811,0.7415,0.4580,-1.3885,7.5912,-8.4457,22.517189,88.418358,13.78
0.4324,0.6963,0.6350,-0.4959,8.6441,5.8823,22.517225,88.418373,13.67
0.5681,0.8213,0.4785,1.4496,2.0981,-20.7520,22.517235,88.418419,13.19
0.4771,0.5955,0.5625,-2.2888,-0.3204,-0.3052,22.517244,88.418427,11.50
0.5901,0.5620,0.4968,-8.4381,-2.1973,-1.2360,22.517254,88.418427,9.37
0.6260,0.5984,0.5076,-11.9476,-5.0812,-2.8381,22.517265,88.418411,6.33
0.6111,0.6997,0.5122,-5.4932,-8.2245,-3.8910,22.517275,88.418404,3.07
0.5183,0.6233,0.4456,-8.5983,-5.4321,1.7319,22.517281,88.418404,1.26
0.5142,0.6531,0.4563,-11.3754,-6.8512,-6.1111,22.517286,88.418411,2.06
0.6536,0.5603,0.3020,-11.1084,0.0458,-21.1334,22.517294,88.418411,2.94
0.5381,0.6985,0.5291,-10.1471,-8.0185,-12.1689,22.517302,88.418434,2.44
0.4783,0.5449,0.5020,-14.2975,2.1820,5.2414,22.517303,88.418434,1.46
0.5378,0.6636,0.4612,-3.0136,-1.3580,-2.6398,22.517315,88.418442,4.67
0.5425,0.6423,0.4448,1.6632,0.4730,1.7548,22.517324,88.418449,4.00
0.5344,0.6387,0.4246,-2.4261,-0.3891,-2.2659,22.517336,88.418449,4.20
0.5366,0.7092,0.4131,-2.3422,0.5798,1.8082,22.517349,88.418457,5.78
0.5146,0.7051,0.4282,-4.6158,3.0136,1.2589,22.517368,88.418465,7.24
0.4492,0.6255,0.5435,-1.8921,2.2888,0.8087,22.517389,88.418465,8.37
0.4758,0.6289,0.4241,2.1820,1.7090,0.3052,22.517408,88.418472,7.72
0.5557,0.7173,0.4231,2.3804,2.8152,-2.8305,22.517429,88.418480,6.98
0.5354,0.6892,0.5747,-5.9891,7.5455,4.3869,22.517447,88.418488,7.65
0.4919,0.7397,0.4646,-4.7989,-6.4774,-13.3286,22.517471,88.418495,9.93
0.6135,0.6509,0.5410,-6.5536,4.0283,13.8702,22.517498,88.418503,11.46
0.5117,0.6128,0.5566,-11.9476,5.7755,8.0948,22.517523,88.418495,8.78
0.7778,0.7483,0.3237,-4.7760,0.2518,-4.0665,22.517548,88.418488,8.82
0.6125,0.7893,0.3879,4.8828,-2.6550,-4.7913,22.517582,88.418495,11.07
0.5486,0.6633,0.6392,-2.3956,3.5248,5.0735,22.517614,88.418503,11.70
0.6460,0.6484,0.4932,-1.4267,2.2812,6.3400,22.517643,88.418503,9.76
0.6919,0.7588,0.4514,0.3738,-7.4005,-5.0125,22.517668,88.418510,9.39
0.5332,0.6775,0.3035,4.5166,-3.3035,-6.4621,22.517691,88.418510,8.80
0.3425,0.6465,0.4683,-1.7700,3.1204,-15.0833,22.517719,88.418518,11.00
0.5144,0.5991,0.4006,1.8463,-1.0529,-1.3046,22.517746,88.418526,11.06
0.4731,0.5688,0.3296,1.9455,0.4501,-3.5324,22.517780,88.418541,11.57
0.8142,0.8196,0.7561,10.8109,36.6745,35.6369,22.517807,88.418564,9.43
0.4358,0.7952,0.5859,-7.8964,1.8234,-0.1297,22.517830,88.418571,8.80
0.5815,0.8118,0.3687,-2.1133,5.3329,8.7738,22.517855,88.418579,11.32
0.3188,0.6050,0.4292,-3.9520,-2.3575,-5.5771,22.517889,88.418594,13.50
0.6599,0.8289,0.3953,-4.3030,1.7090,-4.9744,22.517925,88.418610,15.63
0.6140,0.7676,0.5293,-4.0207,4.9820,13.6108,22.517965,88.418640,16.50
0.5457,0.7041,0.6223,-7.6141,6.2485,10.2234,22.518007,88.418663,16.74
0.5315,0.9043,0.5022,-0.7782,3.3722,7.1106,22.518049,88.418686,17.21
0.5977,0.6792,0.4441,3.2806,-2.5635,-10.2539,22.518091,88.418709,16.74
0.4771,0.7385,0.5945,-4.6997,1.3275,-0.8011,22.518129,88.418724,14.59
0.3862,0.6326,0.6628,-4.6921,1.5717,0.4730,22.518162,88.418739,12.32
0.4670,0.7046,0.5627,3.1204,1.0300,11.0092,22.518188,88.418747,10.22
0.4734,0.6404,0.5342,3.5019,6.5689,5.5771,22.518211,88.418755,8.32
0.4221,0.7180,0.5735,2.6321,10.1318,7.8125,22.518230,88.418762,6.44
0.4336,0.7090,0.5869,3.9291,9.8114,6.4468,22.518244,88.418762,5.26
0.4617,0.8389,0.3423,7.7209,8.5526,7.1106,22.518259,88.418770,3.17
0.4861,0.7649,0.5339,1.0681,13.1378,19.1650,22.518269,88.418770,3.44
0.3550,0.7922,0.4983,1.3351,11.3525,11.5128,22.518278,88.418770,4.13
0.3389,0.8389,0.4956,0.3204,4.8065,1.4801,22.518297,88.418762,6.61
0.6216,0.8931,0.4019,0.9155,3.8071,9.3765,22.518311,88.418739,9.69
0.4124,0.8494,0.4824,-1.1520,2.3041,3.9597,22.518322,88.418701,13.32
0.4446,0.6367,0.5232,-2.7008,2.2964,0.1602,22.518337,88.418648,17.71
0.5476,0.6748,0.4426,-3.8910,4.4250,-10.8337,22.518353,88.418594,18.93
0.5422,0.8403,0.5015,-4.2572,-0.0534,4.0283,22.518373,88.418533,19.56
0.5142,0.7983,0.5266,-5.1498,-3.5553,-4.7684,22.518389,88.418472,17.46
0.4207,0.7029,0.4749,-5.5542,-5.9814,-6.4621,22.518404,88.418411,20.28
0.5645,0.7227,0.4395,2.6169,1.1368,6.9656,22.518423,88.418350,21.59
0.4836,0.6687,0.4280,-7.8659,0.9079,-10.1700,22.518446,88.418282,23.00
0.5791,0.7930,0.6438,-3.4485,1.7090,11.1542,22.518469,88.418213,24.13
0.4224,0.5864,0.4395,-2.4185,2.3041,-6.9275,22.518496,88.418152,25.00
0.4204,0.7993,0.7134,-0.5951,5.5084,5.2643,22.518522,88.418091,23.69
0.2385,0.4700,0.2144,-2.4872,4.9438,-5.8441,22.518543,88.418015,27.00
0.4590,0.5630,0.5427,-1.1444,-2.0370,0.1297,22.518562,88.417938,27.47
0.5581,0.8779,0.7566,-4.4632,-3.9749,0.4959,22.518574,88.417862,27.61
0.5002,0.5996,0.4746,-9.6436,3.8605,3.9597,22.518591,88.417786,28.24
0.6433,0.7400,0.5278,-0.0763,2.9984,12.0621,22.518606,88.417709,28.93
0.4097,0.6384,0.4595,-2.4796,2.9907,-1.5488,22.518620,88.417633,28.82
0.3845,0.6243,0.4646,-3.3188,0.4883,0.8774,22.518633,88.417557,29.63
0.5823,0.6760,0.4797,-4.0359,0.1297,1.8234,22.518641,88.417473,29.26
0.3228,0.5195,0.3516,-4.0207,-3.6697,-7.3242,22.518656,88.417389,30.43
0.7793,0.6880,0.7642,-12.5046,6.5765,20.9427,22.518675,88.417320,28.80
0.5742,0.8484,0.7710,2.5101,1.7700,13.8168,22.518692,88.417244,29.09
0.7395,0.8708,0.6621,2.8381,1.0452,21.7361,22.518709,88.417175,25.54
0.5369,0.7043,0.6055,-3.6774,2.8763,11.6653,22.518724,88.417107,23.30
0.4922,0.6228,0.5200,-5.6229,5.6000,5.9204,22.518742,88.417046,22.43
0.5276,0.7310,0.4565,-0.3586,0.5951,2.9984,22.518757,88.416977,22.67
0.5237,0.8499,0.6643,-1.1978,-9.2087,1.0681,22.518774,88.416916,23.13
0.4834,0.7046,0.4387,-5.8212,-2.6093,-3.4790,22.518793,88.416855,23.65
0.4993,0.6284,0.4629,-0.5951,-7.1106,-6.6452,22.518816,88.416786,23.78
0.7163,0.7026,0.6589,-3.5324,5.9509,9.2697,22.518841,88.416733,23.00
0.4197,0.5891,0.4924,-7.1793,-1.0147,8.0948,22.518866,88.416679,21.30
0.5337,0.6487,0.4233,-0.4196,-0.2136,-5.6763,22.518888,88.416634,15.91
0.5818,0.6511,0.4771,-0.7172,0.4044,0.2594,22.518900,88.416611,8.89
0.4675,0.6238,0.4504,-4.8752,0.5035,4.6768,22.518909,88.416595,5.35
0.4412,0.7151,0.5193,-3.4027,1.0223,0.5035,22.518917,88.416588,3.39
0.4165,0.8159,0.5466,-4.9438,0.9918,5.2567,22.518919,88.416588,2.26
0.5210,0.8230,0.3220,-7.9041,-4.5471,-0.9918,22.518923,88.416580,3.30
0.5496,0.6467,0.5393,-8.3466,-2.8610,-5.5008,22.518940,88.416542,10.54
0.5579,0.7300,0.4517,-5.5771,-8.5449,-7.6447,22.518955,88.416527,9.56
0.4622,0.8296,0.5085,-7.4692,-6.2256,-4.3564,22.518978,88.416519,8.56
0.5078,0.7219,0.3237,-11.3907,-12.2147,-9.3155,22.519009,88.416512,10.04
0.6372,0.7456,0.3672,-12.1918,-13.0615,-9.2392,22.519041,88.416519,12.41
0.5359,0.6853,0.2100,-6.3095,-8.9417,-9.0332,22.519079,88.416534,15.67
0.4446,0.7170,0.2876,-0.4044,-5.7678,-2.1133,22.519115,88.416565,19.41
0.3455,0.4651,0.4587,-10.8948,-1.4114,-12.7258,22.519161,88.416603,23.24
0.5750,0.7468,0.3604,-2.9602,1.3504,-1.5793,22.519205,88.416649,23.67
0.4690,0.7107,0.4683,-14.2365,2.8152,-0.9460,22.519249,88.416695,23.82
0.4771,0.6521,0.3569,-7.1564,-0.7935,2.1744,22.519297,88.416740,26.08
0.4749,0.8030,0.5051,-0.9689,0.4807,2.7695,22.519348,88.416794,27.30
0.6763,0.8540,0.4329,6.2561,-5.4016,0.0076,22.519396,88.416847,28.26
0.4761,0.3445,0.3596,-13.4201,2.3041,12.2528,22.519447,88.416908,28.67
0.4915,0.7217,0.4602,-7.3395,-1.4343,2.6321,22.519501,88.416962,29.13
0.4795,0.8088,0.5122,-4.8065,2.3193,4.9744,22.519552,88.417015,29.37
0.4780,0.7068,0.5388,-4.8828,5.9891,-2.3422,22.519608,88.417076,29.91
0.3940,0.6091,0.6252,-2.3422,-4.3335,5.8136,22.519661,88.417130,30.35
0.5120,0.6262,0.6482,-1.0757,1.1520,-1.4801,22.519712,88.417183,26.04
0.5681,0.7915,0.5840,0.5875,0.0534,5.3558,22.519754,88.417229,21.45
0.5620,0.7075,0.4446,-5.5847,0.0458,-3.8223,22.519791,88.417267,20.95
0.5581,0.7185,0.4629,-4.4861,1.1444,3.8300,22.519829,88.417305,20.61
0.5413,0.9219,0.5200,1.3199,2.8076,-9.0179,22.519865,88.417351,21.52
0.3621,0.6582,0.3950,3.9825,-0.1068,0.1297,22.519901,88.417397,22.30
0.4661,0.7551,0.4355,0.6332,-0.9842,3.5477,22.519941,88.417435,23.74
0.4236,0.7209,0.5706,1.1673,0.0839,-2.0905,22.519985,88.417488,25.35
0.4692,0.7725,0.4045,-6.3400,-0.5569,6.5689,22.520035,88.417534,28.00
0.5217,0.7390,0.5081,-1.5259,-0.8087,8.1100,22.520090,88.417587,29.67
0.6257,0.7900,0.3604,-0.6256,1.4191,5.6534,22.520145,88.417641,30.52
0.6558,1.0764,0.7124,17.4332,-8.0872,-3.8147,22.520205,88.417702,30.61
0.4355,0.5483,0.3447,-4.7913,-5.0125,-9.7504,22.520262,88.417755,32.10
0.4868,0.6919,0.4751,-6.9504,-0.3433,-0.8545,22.520319,88.417816,32.11
0.4087,0.5776,0.4114,-2.7008,-3.5095,-4.9133,22.520374,88.417885,32.30
0.5049,0.7524,0.4192,2.9907,0.1297,-1.9150,22.520432,88.417946,32.72
0.4360,0.7654,0.5671,1.5030,3.9139,4.1275,22.520487,88.418015,32.69
0.3735,0.7673,0.6062,2.3499,-2.2202,0.9003,22.520544,88.418076,33.19
0.3665,0.6963,0.4651,-3.0823,-1.5793,-1.7166,22.520603,88.418144,33.48
0.7002,0.8066,0.4851,-1.1292,-0.9537,8.8730,22.520664,88.418205,34.13
0.5576,0.6990,0.5403,-3.4256,0.3510,18.3868,22.520727,88.418266,34.37
0.5049,0.7996,0.5483,-4.7531,1.2741,1.0147,22.520788,88.418335,33.82
0.5022,0.7080,0.4539,-1.7776,1.3504,-4.2877,22.520849,88.418396,32.93
0.5352,0.6179,0.5085,-1.2894,0.6943,6.0501,22.520908,88.418457,32.58
0.5398,0.5991,0.4060,-0.4120,-2.5635,1.2817,22.520966,88.418518,31.93
0.5088,0.6357,0.3843,-4.5242,-1.6327,4.0436,22.521023,88.418579,31.63
0.4951,0.7744,0.4473,-5.4398,-0.3738,-12.8403,22.521078,88.418640,31.11
0.4851,0.8127,0.3796,4.1199,0.7324,-12.4969,22.521132,88.418701,32.63
0.3523,0.8716,0.7014,-4.7455,-1.4954,8.8654,22.521187,88.418770,34.19
0.5254,0.7922,0.4900,4.2343,0.7706,12.2757,22.521248,88.418839,35.08
0.3738,0.5962,0.5850,-7.5226,2.6169,0.3052,22.521313,88.418907,35.65
0.4243,0.5398,0.3704,-4.2648,-2.2507,-5.4855,22.521378,88.418968,33.82
0.5732,0.6892,0.5303,-3.7384,1.5259,0.6561,22.521437,88.419029,31.37
0.6201,0.6907,0.5623,-6.1569,2.4414,3.0441,22.521490,88.419083,29.30
0.5134,0.6147,0.5952,-3.3722,-1.5564,-0.3281,22.521536,88.419136,26.28
0.4626,0.6787,0.4915,1.1978,1.4038,3.4256,22.521576,88.419182,22.28
0.5623,0.7219,0.4148,-1.8387,0.8163,-3.7308,22.521612,88.419220,20.26
0.6243,0.6165,0.4316,-9.8038,1.7395,8.9035,22.521646,88.419258,19.85
0.4807,0.6118,0.4761,-2.1896,-0.4349,3.3188,22.521679,88.419296,18.69
0.5029,0.6565,0.4570,0.3662,-0.1373,-2.0981,22.521709,88.419334,18.08
0.5403,0.8381,0.6023,-1.9455,3.0060,1.1063,22.521738,88.419373,17.43
0.5818,0.8882,0.5479,-1.5106,3.7231,4.9744,22.521767,88.419403,17.22
0.4919,0.6562,0.4331,-2.9449,0.7935,0.1755,22.521797,88.419441,17.02
0.5149,0.6450,0.4934,-5.2490,0.8774,-1.2512,22.521828,88.419472,16.48
0.5466,0.6829,0.5896,-3.4332,0.6866,2.1515,22.521856,88.419495,14.20
0.5103,0.6604,0.4341,-2.9755,0.7019,-0.8926,22.521879,88.419518,12.24
0.5142,0.6448,0.5115,-3.6087,2.0523,2.6016,22.521900,88.419540,10.93
0.5439,0.7134,0.4531,-2.4567,0.9155,-3.2654,22.521917,88.419563,9.65
0.5330,0.7329,0.4524,-2.8381,-0.1068,-2.6779,22.521935,88.419579,9.26
0.4905,0.7014,0.4832,-3.7613,-1.0681,-7.5302,22.521948,88.419594,5.85
0.5227,0.6780,0.4534,-4.4785,-2.1286,-1.1749,22.521959,88.419609,5.70
0.5229,0.6897,0.4995,-4.9667,-1.6022,2.2812,22.521969,88.419617,5.15
0.5654,0.6006,0.5293,-3.2043,2.2278,0.0000,22.521973,88.419624,3.65
0.5352,0.6636,0.4766,-2.6703,6.3171,1.0147,22.521978,88.419640,4.00
0.4937,0.6604,0.5183,2.2049,6.4926,-0.2060,22.521988,88.419655,5.09
0.5566,0.7551,0.4744,-0.4959,1.2436,7.2861,22.521996,88.419662,4.44
0.3765,0.7861,0.4246,-3.5095,-1.0376,6.1035,22.522005,88.419670,4.22
0.5046,0.6296,0.4778,-7.0114,5.0278,0.4654,22.522017,88.419678,6.13
0.3718,0.5815,0.4885,0.2289,-0.2975,2.6703,22.522030,88.419693,6.52
0.4800,0.7456,0.6252,-3.1357,1.5488,-2.1057,22.522041,88.419701,5.50
0.4856,0.6423,0.5493,-3.0899,-0.3510,3.3798,22.522049,88.419708,4.63
0.5398,0.7659,0.3726,-7.5912,-1.6861,8.8730,22.522057,88.419716,3.43
0.4895,0.7363,0.4438,0.2975,-0.3052,-1.1215,22.522066,88.419724,3.56
0.5364,0.7288,0.3516,-0.4959,-4.3716,-0.0763,22.522072,88.419731,3.56
0.4207,0.7986,0.4084,-1.5488,-0.0610,-5.1880,22.522076,88.419731,2.50
0.4871,0.5525,0.2959,-2.5101,-4.6158,-11.8561,22.522081,88.419739,4.50
0.4683,0.7329,0.4111,-5.7068,-1.6403,-5.4321,22.522095,88.419754,6.98
0.5161,0.6453,0.4226,-2.4719,1.0376,-0.5875,22.522110,88.419777,9.50
0.4238,0.6594,0.3359,-1.0757,0.1450,-7.7896,22.522123,88.419800,9.15
0.4722,0.7109,0.3748,1.5259,-7.1182,9.9411,22.522139,88.419815,9.33
0.5671,0.8638,0.6067,-3.6087,-3.9749,-10.7422,22.522156,88.419838,11.59
0.5215,0.8721,0.1743,1.8311,-1.2512,-16.7694,22.522177,88.419861,12.52
0.4441,0.6121,0.5220,0.1526,2.1057,10.6888,22.522200,88.419891,13.95
0.4695,0.6831,0.5166,-3.4637,-0.6866,-2.8305,22.522224,88.419922,14.56
0.1985,0.1677,0.0354,4.8904,6.2103,7.0038,22.522249,88.419945,13.33
0.3884,0.5151,0.2949,-12.3901,2.8915,-13.8168,22.522276,88.419968,13.02
0.4648,0.8074,0.6348,5.4474,2.3270,3.0060,22.522303,88.419991,13.82
0.3984,0.6523,0.4290,-4.2038,-1.1597,-11.2610,22.522333,88.420013,15.43
0.6311,0.7014,0.4324,-4.8599,-1.3428,3.9825,22.522366,88.420044,17.46
0.8823,0.8740,0.4680,-13.2523,5.6992,12.4969,22.522398,88.420074,16.95
0.4695,0.6033,0.4033,-3.6240,-0.9613,1.0986,22.522430,88.420105,17.50
0.5173,0.6511,0.3777,-6.1874,0.7858,-0.6714,22.522463,88.420143,17.67
0.5432,0.7205,0.5227,-6.1188,5.5008,10.1242,22.522495,88.420174,19.46
0.4397,0.6572,0.2588,7.4234,-8.6212,-21.4920,22.522566,88.420258,20.21
0.4341,0.5066,0.4761,-6.2866,1.7776,2.7313,22.522600,88.420296,19.96
0.4971,0.7869,0.6238,-0.7553,0.3281,3.8986,22.522636,88.420334,19.35
0.6104,0.8069,0.6008,1.0681,4.9896,21.3776,22.522671,88.420364,19.39
0.4087,0.6670,0.2971,0.1450,-0.1755,-1.6251,22.522705,88.420403,17.09
0.4658,0.8140,0.3936,-4.9210,-2.1515,-0.9995,22.522736,88.420425,16.15
0.6582,0.8357,0.5510,-2.6321,1.1902,-4.0131,22.522766,88.420456,15.67
0.4177,0.6489,0.4680,-6.6833,9.8572,-0.3281,22.522797,88.420486,15.48
0.5403,0.8330,0.5261,-7.2937,-2.1820,11.1160,22.522820,88.420517,12.83
0.5969,0.7913,0.4294,-1.8082,-4.2877,6.3400,22.522842,88.420540,12.11
0.5942,0.5864,0.4734,-2.4033,-1.6251,-2.2278,22.522861,88.420563,10.52
0.4937,0.8113,0.4775,0.0610,-1.0986,-2.3193,22.522877,88.420578,6.06
0.4209,0.6956,0.3652,-0.7019,-1.3504,-0.0305,22.522888,88.420586,5.57
0.5552,0.7183,0.4526,-4.0436,0.7706,0.3738,22.522898,88.420601,5.94
0.4941,0.6414,0.4216,-3.4409,2.3804,0.0687,22.522907,88.420609,5.61
0.4626,0.6921,0.3459,6.0883,-3.2425,-4.0436,22.522919,88.420624,5.72
0.5444,0.6848,0.4048,-3.4256,2.8610,0.2289,22.522930,88.420631,7.45
0.4246,0.6614,0.2727,-7.7438,3.1738,-7.3318,22.522945,88.420647,9.39
0.4465,0.8918,0.5093,3.1433,-2.6855,5.2338,22.522968,88.420670,12.74
0.5361,0.6880,0.4116,-5.6610,2.5558,4.8523,22.522995,88.420700,16.26
0.5681,0.6946,0.4961,-4.1122,-0.4578,-4.9896,22.523027,88.420738,18.54
0.6230,0.8418,0.5244,-4.4937,-0.4807,11.2610,22.523058,88.420776,18.06
0.5645,0.7654,0.4180,0.5646,1.0834,-14.9918,22.523090,88.420815,19.46
0.4536,0.6560,0.3899,-5.2490,1.8158,-5.3940,22.523123,88.420853,21.09
0.5056,0.6755,0.2883,-6.4011,3.0136,11.7874,22.523161,88.420898,23.15
0.5330,0.7939,0.3909,-5.0049,1.1292,7.9803,22.523201,88.420944,24.89
0.6265,0.8035,0.3970,-0.7858,-0.2594,-0.8469,22.523243,88.420998,26.11
0.5122,0.7107,0.3657,-3.2272,5.5237,10.1166,22.523287,88.421051,26.13
0.6672,0.6409,0.4749,-7.2250,3.9978,-0.7935,22.523327,88.421104,24.74
0.5781,0.4597,0.4871,-2.2659,7.8506,-8.2397,22.523367,88.421150,22.65
0.5093,0.6460,0.4939,-11.6272,8.2397,7.1030,22.523401,88.421188,19.24
0.5193,0.5701,0.5337,-0.6485,-4.6844,0.4730,22.523432,88.421219,16.33
0.8594,0.6062,0.6323,2.8000,1.8158,-9.9335,22.523458,88.421249,13.45
0.4709,0.5488,0.2292,-1.0147,3.7460,-10.3760,22.523478,88.421272,9.80
0.4016,0.6313,0.3672,-1.1749,0.9689,0.7172,22.523495,88.421288,8.78
0.4280,0.6780,0.4761,-5.1193,2.2354,0.1068,22.523518,88.421303,11.69
0.6541,0.7251,0.4248,-7.0038,2.0599,-8.8348,22.523537,88.421326,9.87
0.4053,0.7639,0.4224,-3.5553,1.7700,-14.0152,22.523554,88.421341,9.95
0.6558,1.1301,0.6072,-7.0038,12.9929,5.6839,22.523573,88.421364,10.87
0.4209,0.6521,0.4080,-3.3417,-4.1351,-14.5798,22.523594,88.421387,13.54
0.6797,0.7837,0.4214,-7.0114,5.4016,9.5291,22.523621,88.421417,16.39
0.4961,0.7961,0.4028,0.4425,5.3406,1.5717,22.523651,88.421455,19.41
0.4385,0.6621,0.4529,-4.3182,3.7537,0.8316,22.523689,88.421494,20.59
0.5996,0.8916,0.5164,4.0131,-5.8136,-14.4043,22.523729,88.421524,20.56
0.6206,0.7190,0.5232,-7.3700,1.4801,13.0768,22.523771,88.421562,21.84
0.4319,0.5852,0.3562,-0.5264,-6.1874,-10.9482,22.523815,88.421600,23.08
0.4666,0.5479,0.3271,-0.1678,-6.7139,-9.5367,22.523857,88.421638,21.46
0.4573,0.4111,0.3777,6.8283,-3.5324,-10.7498,22.523895,88.421677,18.00
0.5649,0.7295,0.4956,-2.9449,0.1755,-4.7989,22.523926,88.421707,15.45
0.6204,0.5745,0.5449,-6.4392,1.3351,3.8300,22.523951,88.421730,12.46
0.5759,0.7593,0.3611,-1.1063,-0.8698,-2.5330,22.523972,88.421753,10.91
0.4592,0.7034,0.5977,-6.0043,12.8326,6.5460,22.523991,88.421776,11.06
0.6370,0.8760,0.4719,2.4948,-7.8812,9.4299,22.524012,88.421799,12.65
0.6001,0.7441,0.3638,-5.1422,-3.0136,-6.2637,22.524040,88.421822,15.02
0.5759,0.6729,0.4875,-7.5073,7.5073,-6.6605,22.524071,88.421852,16.52
0.4426,0.7532,0.4697,-0.0153,3.4103,-4.2038,22.524105,88.421890,18.74
0.5425,0.6306,0.4336,1.5945,-2.7084,5.1727,22.524139,88.421928,19.72
0.5771,0.6912,0.6125,11.0550,-8.2550,-12.3825,22.524174,88.421974,19.54
0.5432,0.7034,0.6028,1.0376,8.0338,10.8719,22.524208,88.422005,18.48
0.4490,0.7112,0.5613,3.8528,2.9373,-5.6229,22.524242,88.422043,18.04
0.5867,0.6604,0.3765,-1.6937,-2.2507,-4.6082,22.524277,88.422073,17.37
0.4863,0.6348,0.4553,1.2360,0.4959,7.8964,22.524311,88.422096,16.48
0.5618,0.6189,0.4141,-1.1139,-2.8000,5.4779,22.524343,88.422119,16.17
0.3628,0.4712,0.5222,-0.7629,-2.3270,-8.8501,22.524376,88.422142,15.39
0.3699,0.7449,0.4612,-0.0610,0.9613,-2.1591,22.524405,88.422165,14.17
0.6018,0.6421,0.2708,5.5923,13.5193,9.7809,22.524427,88.422188,12.52
0.4702,0.6782,0.2109,-22.4686,16.6245,15.1749,22.524460,88.422211,14.50
0.3264,0.6475,0.3655,8.7509,16.4032,1.9989,22.524496,88.422226,16.09
0.5037,0.9019,0.4880,-3.6316,4.9896,4.7455,22.524540,88.422226,18.82
0.5376,0.6189,0.3105,-4.8447,2.8152,-4.5395,22.524593,88.422218,21.30
0.4377,0.5942,0.2964,-7.3166,6.5231,-3.4180,22.524647,88.422211,21.71
0.3425,0.6953,0.3152,0.0458,1.7014,10.5362,22.524702,88.422203,21.76
0.3877,0.7500,0.4192,-0.1602,1.5259,2.9678,22.524757,88.422195,22.72
0.5967,0.7891,0.3425,-1.9913,3.8300,-10.7956,22.524817,88.422180,24.30
0.5066,0.6748,0.3511,-1.8845,5.6686,4.0512,22.524878,88.422165,25.78
0.5090,0.6472,0.5168,-7.0496,5.4245,11.7874,22.524942,88.422150,26.22
0.3845,0.4727,0.3826,2.9984,-6.1493,12.1994,22.525007,88.422134,26.37
0.5256,0.7034,0.4580,-0.0763,0.0610,2.5864,22.525070,88.422112,25.22
0.6062,0.7527,0.4863,2.8458,-0.9537,-6.2332,22.525127,88.422089,23.87
0.4905,0.6399,0.6003,-3.6316,-2.1820,5.0888,22.525179,88.422073,20.96
0.5168,0.6238,0.4907,-5.4779,-1.3046,4.9591,22.525219,88.422050,16.67
0.4680,0.7273,0.3069,-0.6180,-0.4730,-2.2049,22.525255,88.422035,14.82
0.8167,0.8918,0.2998,-2.4567,-5.9662,8.1406,22.525295,88.422028,16.82
0.6702,0.9375,0.3979,-9.3994,2.3270,-1.6479,22.525341,88.422012,19.76
0.4675,0.6814,0.4709,0.3586,-0.9537,-5.7526,22.525393,88.421997,21.96
0.4702,0.6204,0.3540,-4.3640,-2.2964,-7.7286,22.525446,88.421982,21.91
0.5039,0.7673,0.3518,2.4948,-3.8071,-5.4169,22.525499,88.421967,22.08
0.4524,0.6050,0.3391,-10.5362,7.8354,1.3275,22.525555,88.421951,22.76
0.5686,0.7161,0.5359,-1.7548,1.0452,3.4409,22.525612,88.421928,24.13
0.5100,0.4810,0.6604,-9.2316,2.4261,5.8441,22.525671,88.421913,24.24
0.4009,0.6475,0.3572,-3.2043,2.3041,-0.9460,22.525723,88.421898,19.69
0.5886,0.7241,0.4751,-7.4615,5.9891,3.7994,22.525763,88.421883,14.83
0.3752,0.5569,0.3784,-2.5635,1.9226,-6.7596,22.525797,88.421875,13.72
0.5115,0.8997,0.2463,1.4648,6.0501,-4.7455,22.525829,88.421860,14.39
0.5195,0.6245,0.5667,-5.3406,-0.6485,1.8463,22.525866,88.421844,15.48
0.4795,0.7981,0.4778,-6.2790,3.3417,12.1613,22.525904,88.421829,17.41
0.3884,0.7227,0.3953,-3.9215,-2.1591,3.2349,22.525946,88.421814,19.22
0.4951,0.7134,0.3757,-5.3177,4.0207,-2.3880,22.525995,88.421799,20.71
0.4412,0.7024,0.3821,-2.5864,-0.2975,-5.5084,22.526047,88.421776,22.93
0.7722,0.7205,0.4407,-7.4921,-2.8152,8.3694,22.526104,88.421753,24.50
0.6260,0.8018,0.4705,-2.8610,-4.0588,1.5717,22.526163,88.421730,25.56
0.6433,0.7310,0.4360,0.4120,5.5466,-4.3182,22.526226,88.421707,26.04
0.4822,0.3633,0.5381,-0.0610,-10.7651,2.4338,22.526346,88.421669,25.04
0.5457,0.7732,0.5886,1.2283,1.2054,4.7226,22.526405,88.421646,25.19
0.6978,0.5513,0.3547,4.0054,-6.5842,-2.9297,22.526461,88.421623,23.13
0.6106,0.6389,0.4990,0.7324,2.1439,1.8463,22.526514,88.421600,21.95
0.5979,0.6416,0.3538,1.5335,1.9379,-0.0305,22.526567,88.421585,22.24
0.4702,0.6489,0.4321,-3.4943,3.1509,3.3035,22.526621,88.421562,22.32
0.4580,0.7151,0.4666,-0.4501,-0.6256,-9.1400,22.526676,88.421547,22.63
0.4377,0.7363,0.4062,-6.1035,3.4714,-0.3128,22.526730,88.421532,21.98
0.5691,0.7146,0.6064,0.2747,0.8392,3.7384,22.526787,88.421509,23.96
0.4824,0.7009,0.4453,-6.3858,0.8774,5.2795,22.526848,88.421486,27.02
0.5417,0.8345,0.4087,-4.3182,5.9586,5.8212,22.526907,88.421455,26.71
0.5386,0.7183,0.3359,-6.0196,3.0899,-4.1122,22.526972,88.421425,29.00
0.6143,0.8228,0.5061,-5.4321,-4.7607,6.1646,22.527039,88.421394,29.06
0.3679,0.3962,0.2654,-5.5389,2.8229,-12.5046,22.527109,88.421356,30.08
0.5132,0.5491,0.3223,5.2338,-10.4523,-13.4201,22.527182,88.421333,29.87
0.5935,0.5867,0.3743,-7.1945,-1.0681,-5.7678,22.527254,88.421310,29.19
0.5415,0.7144,0.3743,6.3324,-2.7313,-3.5477,22.527325,88.421288,29.28
0.5195,0.8486,0.4927,-0.0992,4.0054,-15.4495,22.527395,88.421272,28.43
0.4409,0.6240,0.5015,-2.3880,-2.6627,8.1024,22.527464,88.421249,28.52
0.7043,0.8748,0.6267,-2.2354,2.2507,8.1024,22.527533,88.421227,28.28
0.4973,0.7295,0.3853,-3.1891,1.7624,2.3041,22.527599,88.421204,26.93
0.5376,0.6067,0.4446,-7.8583,-0.6485,-5.5008,22.527660,88.421181,25.00
0.5691,0.6216,0.4771,-1.1368,-3.5629,-0.4196,22.527719,88.421165,22.91
0.5557,0.7229,0.4775,-5.0049,1.7014,3.4866,22.527773,88.421158,20.02
0.5168,0.6626,0.5645,-0.2899,2.5253,2.0752,22.527817,88.421143,17.33
0.5298,0.6824,0.4568,-2.9297,-0.8392,2.0828,22.527853,88.421127,14.70
0.5715,0.6777,0.2783,-7.3318,-6.0425,3.9139,22.527885,88.421120,13.02
0.5325,0.8721,0.5425,-5.1041,-2.1667,-1.9836,22.527916,88.421112,12.15
0.3337,0.6748,0.3330,-1.3428,1.0986,-7.1182,22.527948,88.421104,14.20
0.3735,0.6851,0.5857,-1.5564,9.6664,4.0512,22.527985,88.421097,15.09
0.4485,0.5876,0.3940,-3.6087,3.7384,1.3885,22.528021,88.421089,13.76
0.5469,0.6055,0.5930,-5.9662,-0.6332,3.5400,22.528049,88.421074,12.33
0.5867,0.6450,0.5798,-4.8065,2.6169,-1.3123,22.528074,88.421066,8.85
0.4907,0.7646,0.6135,-4.1962,3.7155,-0.8163,22.528090,88.421059,5.76
0.4612,0.7812,0.5205,-1.5411,2.6474,-2.6550,22.528101,88.421059,3.54
0.4207,0.7100,0.2803,2.1973,-4.6997,2.0828,22.528107,88.421059,2.82
0.5264,0.5750,0.4275,-6.8588,2.6855,5.4550,22.528116,88.421051,3.96
0.5186,0.8464,0.2603,4.6310,-3.2196,-2.6855,22.528126,88.421051,4.80
0.4128,0.5730,0.3840,0.0534,1.3351,-2.5558,22.528139,88.421043,5.04
0.4568,0.6965,0.4790,-5.2567,4.9744,6.4163,22.528152,88.421043,5.46
0.4854,0.6736,0.3567,-2.6627,0.0458,0.9995,22.528164,88.421036,5.26
0.5962,0.7634,0.3948,-4.1504,-3.2578,-2.1896,22.528177,88.421028,6.06
0.5198,0.6638,0.4749,-7.2937,0.8163,2.3422,22.528193,88.421028,6.78
0.5347,0.7051,0.4717,-4.7226,-0.6180,-1.5030,22.528210,88.421021,7.46
0.5959,0.7722,0.4558,-2.3499,-0.2975,1.2589,22.528227,88.421013,7.11
0.5583,0.6135,0.5161,0.0153,-2.5635,9.9258,22.528244,88.421013,6.72
0.5215,0.6226,0.3186,0.1068,5.5771,-3.1586,22.528257,88.421013,5.59
0.5464,0.6814,0.3875,-4.2343,2.8534,0.8774,22.528271,88.421005,5.57
0.5684,0.6802,0.4412,-10.2386,9.0027,-6.9962,22.528284,88.421005,5.69
0.5164,0.7207,0.4768,-4.0741,-4.5013,-5.1880,22.528299,88.421005,6.02
0.5244,0.7773,0.4402,-10.2158,-11.6653,5.7449,22.528315,88.421005,5.80
0.5576,0.6284,0.3923,-10.1624,-2.6016,-1.6098,22.528328,88.421005,6.35
0.5959,0.7090,0.5051,-9.0485,-4.3182,-6.7749,22.528345,88.421013,7.76
0.5906,0.7954,0.3250,-2.5177,-3.0518,-4.6310,22.528360,88.421013,5.98
0.5662,0.7732,0.2556,-2.3804,0.1068,-4.7989,22.528374,88.421021,6.76
0.5103,0.8528,0.3083,2.4567,2.7924,3.2349,22.528393,88.421036,9.70
0.5515,0.6936,0.4612,-3.3569,8.1406,-3.6545,22.528416,88.421051,12.58
0.5032,0.7288,0.5627,-3.7003,2.4796,5.5237,22.528442,88.421074,12.48
0.5073,0.7126,0.4468,-5.6763,7.1945,6.0959,22.528467,88.421082,10.96
0.4675,0.6440,0.4624,-7.4158,5.2109,10.4980,22.528492,88.421097,11.24
0.4919,0.7222,0.4265,-1.5869,3.9444,0.3586,22.528517,88.421112,10.91
0.4990,0.7205,0.2947,-0.8316,-0.2670,-1.5411,22.528542,88.421120,10.35
0.4834,0.8772,0.4541,-11.1923,-1.1292,0.2747,22.528564,88.421127,9.82
0.4192,0.5605,0.2969,3.2654,-8.1100,-1.2054,22.528589,88.421135,10.96
0.5132,0.7866,0.6240,-1.2894,0.3052,3.2730,22.528618,88.421143,12.15
0.4897,0.4602,0.4829,-5.6076,-23.4604,-7.2632,22.528648,88.421150,12.76
0.5393,0.7129,0.3586,-2.2736,0.7858,4.7455,22.528683,88.421165,15.82
0.2974,0.6392,0.2629,-8.5907,7.5226,-0.6790,22.528725,88.421181,18.96
0.5398,0.6494,0.4080,-5.7144,4.2267,-0.1526,22.528770,88.421204,20.00
0.4197,0.7856,0.2227,0.4807,-7.3166,-20.3781,22.528818,88.421219,19.82
0.4224,0.6863,0.4568,0.0000,-5.4626,1.5335,22.528866,88.421227,19.11
0.5288,0.6865,0.5437,-0.4959,1.3657,1.2360,22.528912,88.421242,18.83
0.5850,0.7180,0.3923,0.8621,0.0534,-3.2654,22.528954,88.421257,17.13
0.5083,0.5481,0.4546,-2.1133,-0.4883,-2.3270,22.528990,88.421265,14.54
0.2996,0.6863,0.3125,-0.9842,-0.8621,-14.8010,22.529020,88.421280,12.56
0.4622,0.7866,0.5093,-2.5253,-5.9204,-17.8757,22.529049,88.421288,11.46
0.5361,0.6819,0.4863,-3.3188,-2.3422,4.6082,22.529074,88.421295,10.41
0.5388,0.7468,0.4897,-2.9602,2.4261,1.5106,22.529097,88.421303,10.02
0.4963,0.6846,0.4812,-1.8311,3.7842,3.8605,22.529119,88.421310,9.26
0.5137,0.7358,0.5171,-1.5869,3.4790,0.0610,22.529139,88.421318,7.61
0.3845,0.8108,0.5073,-3.4866,-1.6785,10.5591,22.529154,88.421318,5.72
0.4585,0.8535,0.5029,0.8621,1.8158,-0.1144,22.529165,88.421326,4.74
0.3667,0.6511,0.5215,-1.8921,8.2932,-6.6376,22.529179,88.421326,3.87
0.3743,0.6660,0.5505,-1.7471,3.6469,-3.6163,22.529190,88.421326,4.67
0.3489,0.7280,0.5198,-5.1498,5.4855,-6.3553,22.529202,88.421326,4.94
0.3660,0.7927,0.3547,-0.6714,-0.9384,2.4185,22.529213,88.421326,4.72
0.4253,0.6611,0.3655,1.0529,-2.9602,6.0120,22.529226,88.421326,5.00
0.4670,0.7148,0.5022,-3.2806,2.7237,6.1646,22.529240,88.421326,5.30
0.4705,0.7466,0.4780,-1.2283,5.7755,2.8687,22.529255,88.421318,5.96
0.5530,0.6958,0.4250,1.2665,2.9373,3.6850,22.529270,88.421318,6.89
0.5127,0.6680,0.4426,0.5798,7.4692,5.8060,22.529289,88.421310,7.56
0.4126,0.7534,0.4421,2.1896,8.4000,5.0507,22.529308,88.421310,8.17
0.4937,0.8354,0.4260,2.1591,9.5215,6.3629,22.529327,88.421295,8.61
0.4836,0.7568,0.4832,7.6523,1.5793,5.3940,22.529348,88.421280,10.93
0.4001,0.7239,0.4968,0.7553,6.4621,3.1433,22.529369,88.421257,13.30
0.4749,0.7905,0.3887,-1.4954,3.5095,2.8076,22.529387,88.421227,13.20
0.4187,0.7290,0.5471,-2.9526,1.3885,2.8534,22.529402,88.421188,14.06
0.3904,0.6519,0.5557,-2.5406,2.5711,2.5406,22.529413,88.421150,16.65
0.4749,0.7034,0.5352,-2.5482,1.2054,2.5330,22.529427,88.421104,15.78
0.4829,0.7034,0.5217,-2.8381,0.1373,-0.2365,22.529436,88.421066,13.56
0.4778,0.7031,0.5637,-2.0370,-0.1144,0.3586,22.529444,88.421036,11.52
0.4917,0.6738,0.5132,-3.6163,-0.0305,0.0458,22.529449,88.421005,8.63
0.4900,0.6851,0.5601,-2.8229,1.3123,-0.1907,22.529453,88.420990,5.44
0.4819,0.6731,0.5269,-2.3727,0.1297,-0.8926,22.529457,88.420975,5.02
0.4680,0.6982,0.4609,-3.1738,0.0839,0.4959,22.529457,88.420967,2.69
0.4868,0.7219,0.4724,-2.8076,0.0763,0.0916,22.529459,88.420967,1.07
0.4717,0.6646,0.5037,-3.7155,0.6485,-0.2060,22.529461,88.420959,0.56
0.4604,0.7222,0.4836,-3.0060,0.6256,1.8158,22.529463,88.420959,0.11
0.4661,0.6921,0.4832,-4.6387,2.1591,0.3281,22.529463,88.420959,0.11
0.4827,0.7251,0.4521,-4.3259,-1.1215,1.0223,22.529465,88.420959,0.94
0.4495,0.6892,0.3950,-1.9684,0.0916,-1.2054,22.529469,88.420952,2.80
0.5037,0.6938,0.3823,-3.5706,3.6011,0.9613,22.529470,88.420937,4.83
0.4551,0.8130,0.4185,-1.2817,0.1526,-3.4866,22.529478,88.420921,8.45
0.5010,0.7124,0.4868,-3.8605,0.0610,3.7231,22.529486,88.420891,11.98
0.4482,0.7805,0.3706,-1.3504,-0.5035,-0.3815,22.529493,88.420853,11.96
0.5142,0.7246,0.4326,-4.5242,1.4572,3.4637,22.529503,88.420822,13.24
0.3997,0.7019,0.3535,-2.6169,-0.2975,-3.1967,22.529512,88.420784,15.61
0.4299,0.7805,0.3789,-1.8387,2.7542,0.1907,22.529526,88.420731,19.83
0.4617,0.7261,0.5540,-2.3880,-1.3962,3.4943,22.529541,88.420677,23.32
0.4187,0.6763,0.3440,-2.5787,5.6992,-4.1885,22.529554,88.420616,23.30
0.4380,0.7932,0.4814,-2.0905,2.1973,0.2899,22.529570,88.420547,24.30
0.5076,0.8103,0.3696,-2.0294,-0.2060,6.3400,22.529583,88.420479,26.28
0.5559,0.8911,0.4004,-3.3112,0.4654,2.8687,22.529598,88.420410,28.26
0.4968,0.8489,0.4690,-2.5787,-2.1439,2.8458,22.529615,88.420334,29.32
0.4844,0.7925,0.4368,-0.7324,-3.0670,-0.6485,22.529631,88.420250,31.82
0.5081,0.7463,0.4399,-2.8076,0.0229,0.0916,22.529650,88.420158,33.65
0.4590,0.7192,0.4573,-4.5929,2.8610,-0.8392,22.529671,88.420067,35.02
0.4238,0.6914,0.4736,-4.2419,-1.0834,3.4943,22.529694,88.419968,36.56
0.4211,0.6633,0.4795,-3.8071,2.6169,-1.8616,22.529716,88.419868,38.11
0.4219,0.6868,0.4968,-3.0365,0.4120,0.6561,22.529741,88.419769,37.97
0.5012,0.7585,0.4446,-2.2736,2.9831,2.8687,22.529766,88.419670,36.93
0.5342,0.7739,0.4341,-2.8229,0.6866,-1.2894,22.529787,88.419571,36.76
0.4819,0.6475,0.3789,-3.2578,0.9537,1.2207,22.529810,88.419479,36.82
0.5239,0.7637,0.4189,-1.3199,-2.9449,5.7373,22.529835,88.419380,37.11
0.5720,0.7090,0.3774,-4.7150,4.1351,2.6169,22.529858,88.419281,37.65
0.5422,0.7991,0.5117,-1.6251,2.1515,8.3923,22.529884,88.419182,38.11
0.4617,0.6997,0.4131,-4.1428,2.5024,3.3493,22.529911,88.419083,38.93
0.3411,0.8015,0.6328,-0.0610,1.6327,3.4943,22.529936,88.418976,39.10
0.5110,0.7678,0.4277,-3.1357,-0.8163,-2.4872,22.529957,88.418877,39.65
0.5229,0.7568,0.4109,-3.5629,-1.4725,-0.4120,22.529978,88.418770,40.19
0.5090,0.7271,0.4973,-1.0071,-3.2196,9.1629,22.529999,88.418663,40.73
0.5142,0.7742,0.3923,-3.3875,2.5482,-0.3052,22.530024,88.418556,41.04
0.4583,0.7190,0.4766,-2.2202,0.6638,-1.6327,22.530050,88.418442,41.69
0.4944,0.8235,0.4226,-1.9760,0.9155,2.5787,22.530073,88.418335,42.34
0.4980,0.7197,0.4592,-5.5618,1.1444,4.6997,22.530100,88.418221,43.11
0.6021,0.6848,0.4473,-3.7689,1.6098,-0.3586,22.530125,88.418106,42.65
0.4211,0.6548,0.4648,-4.1656,1.3199,-0.9308,22.530151,88.417992,43.30
0.5115,0.6680,0.4177,-3.6240,0.6561,-1.6479,22.530178,88.417877,44.02
0.5811,0.8123,0.3708,-1.5182,2.9221,-3.5706,22.530207,88.417763,44.28
0.4421,0.7095,0.5337,-3.6240,0.7553,-1.4114,22.530233,88.417641,44.78
0.3787,0.6526,0.4333,-1.3199,-0.3967,-2.6245,22.530260,88.417526,45.00
0.4619,0.6340,0.5564,-2.8458,0.7019,1.5945,22.530285,88.417404,44.30
0.4626,0.6619,0.5479,-3.0899,-0.6409,1.5259,22.530310,88.417290,42.47
0.4189,0.6765,0.5505,-3.6850,0.8011,-3.4027,22.530334,88.417183,39.35
0.4612,0.6375,0.6006,-3.2120,2.3727,0.9308,22.530355,88.417091,35.39
0.4683,0.6831,0.5659,-3.5629,-0.1297,-0.9537,22.530375,88.417000,31.80
0.4485,0.6750,0.4312,-4.5624,3.5934,-0.4044,22.530392,88.416924,27.87
0.4604,0.6831,0.4004,-3.5400,-0.7401,-2.9678,22.530407,88.416855,25.15
0.4570,0.7720,0.4792,-2.0523,3.8834,0.2060,22.530426,88.416794,25.65
0.3638,0.7468,0.4954,-2.0447,2.8152,-3.4637,22.530447,88.416718,28.08
0.3999,0.9636,0.4199,-3.4103,3.7079,-6.2332,22.530466,88.416641,30.08
0.3938,0.7029,0.4641,-4.0359,0.1831,4.4022,22.530485,88.416557,32.19
0.4902,0.8193,0.4314,-2.0676,-0.7401,2.8687,22.530506,88.416473,33.11
0.4460,0.8203,0.4446,-3.3264,-0.5798,1.3809,22.530525,88.416382,35.48
0.4346,0.7200,0.5127,-4.4250,2.5101,-1.5640,22.530548,88.416283,37.21
0.4585,0.7666,0.5020,-0.0992,-2.5253,1.5335,22.530577,88.416191,36.78
0.3940,0.6812,0.5244,-5.2948,2.5253,-2.1973,22.530598,88.416092,35.80
0.4326,0.7104,0.4648,-4.7226,-0.0229,-5.6152,22.530621,88.415993,36.85
0.4819,0.7219,0.3755,-3.9444,0.3128,-7.0572,22.530643,88.415894,38.63
0.3901,0.6589,0.4670,-3.4866,1.0223,-6.8436,22.530666,88.415787,39.78
0.4309,0.5779,0.4407,-5.6152,-1.1139,-0.0992,22.530689,88.415680,41.13
0.4504,0.6731,0.4644,-4.4785,1.0910,-2.6550,22.530716,88.415565,41.74
0.4961,0.7651,0.3965,-3.0212,-1.8768,1.1597,22.530739,88.415451,42.78
0.4687,0.7686,0.4404,-3.4256,2.7695,9.5291,22.530764,88.415337,43.87
0.3225,0.6006,0.3606,-0.0992,-7.4997,0.2594,22.530790,88.415222,44.28
0.4080,0.6873,0.4448,0.7935,-6.3095,-13.0005,22.530817,88.415100,44.99
0.4351,0.6875,0.4780,-3.2272,1.1749,3.4714,22.530848,88.414978,46.19
0.4839,0.7046,0.4316,-4.6463,-1.6251,1.4420,22.530876,88.414856,46.76
0.4260,0.6865,0.4536,-2.2736,-0.4654,2.0828,22.530907,88.414734,47.52
0.3572,0.6345,0.4736,-4.2953,-0.2747,-1.0605,22.530935,88.414604,48.06
0.4133,0.7207,0.4773,-2.3499,1.3275,-1.4801,22.530966,88.414482,48.34
0.4824,0.7620,0.4805,-1.5945,1.3657,4.6234,22.530994,88.414352,48.69
0.5828,0.7788,0.4331,-2.4796,3.1204,1.0376,22.531025,88.414223,49.08
0.4370,0.6362,0.5181,-2.6779,-0.4883,5.0964,22.531054,88.414093,48.86
0.4595,0.6750,0.4404,-4.2419,-1.0986,-1.0834,22.531080,88.413963,48.10
0.4211,0.7083,0.4263,-2.9449,-0.7172,-2.0065,22.531111,88.413841,47.49
0.4731,0.7063,0.4399,-4.1733,1.6632,-3.3722,22.531139,88.413719,46.61
0.4893,0.6831,0.4687,-1.6098,1.3351,-0.8926,22.531170,88.413597,45.86
0.5107,0.6287,0.3896,-5.2261,0.6790,-7.6904,22.531197,88.413475,45.08
0.5518,0.8176,0.4307,-0.8545,3.1891,-0.6943,22.531221,88.413361,44.32
0.4458,0.6797,0.4370,-2.8534,1.1902,-0.0687,22.531248,88.413246,43.65
0.5789,0.7068,0.4531,-1.5030,0.8545,0.2136,22.531273,88.413132,43.04
0.5632,0.7197,0.4023,-1.3733,3.1433,-2.1515,22.531296,88.413017,42.80
0.4556,0.6765,0.4846,-4.0283,1.2207,4.4937,22.531321,88.412903,42.45
0.5422,0.7336,0.4744,-3.7003,-0.0305,2.3193,22.531347,88.412788,42.04
0.4919,0.6860,0.4863,-3.1357,1.5106,1.8616,22.531370,88.412682,41.21
0.4170,0.6475,0.4465,-3.3798,2.5330,-5.0659,22.531395,88.412575,39.24
0.4905,0.6575,0.5332,-3.1357,-0.4730,3.4561,22.531418,88.412476,37.54
0.5066,0.8047,0.5059,-2.5482,0.3281,2.3499,22.531441,88.412384,35.50
0.4517,0.7964,0.5232,-0.6180,-2.9678,-0.3052,22.531460,88.412292,33.82
0.5022,0.7600,0.4753,-3.0746,1.6708,4.2038,22.531481,88.412201,33.02
0.3611,0.5847,0.4658,-3.5629,1.6785,-5.3864,22.531500,88.412117,32.89
0.4800,0.7217,0.4148,-4.0054,-0.6256,-1.9608,22.531521,88.412033,33.04
0.5186,0.6880,0.3696,-3.0670,-1.6403,0.6256,22.531540,88.411942,33.28
0.6143,0.8528,0.4023,-1.3275,1.3428,2.6550,22.531559,88.411858,32.80
0.5310,0.8362,0.4141,-1.9379,-2.0828,0.2823,22.531576,88.411766,32.80
0.5151,0.7639,0.3975,-3.5248,4.3259,-2.3041,22.531595,88.411682,33.26
0.4465,0.7517,0.4841,-3.5248,-1.2741,6.6833,22.531614,88.411591,33.60
0.5171,0.6863,0.5217,-2.1515,-0.2823,5.8594,22.531635,88.411507,34.13
0.4624,0.7268,0.5085,-2.5406,2.8534,2.1362,22.531681,88.411331,34.21
0.4541,0.7271,0.3398,-2.2659,7.8583,2.0065,22.531702,88.411240,34.45
0.4846,0.7666,0.4937,-1.6556,0.9460,5.5618,22.531725,88.411148,35.34
0.5503,0.8125,0.3687,-1.8158,0.7782,-0.0458,22.531746,88.411049,35.84
0.4565,0.7573,0.5366,-3.5248,2.3117,1.5182,22.531767,88.410957,35.89
0.4714,0.6953,0.5085,-4.5090,-0.1602,2.7618,22.531790,88.410866,34.74
0.4580,0.6804,0.4878,-2.3422,2.3651,-3.4409,22.531807,88.410782,32.08
0.4009,0.6487,0.4849,-2.5635,-3.1891,-3.4561,22.531826,88.410698,29.00
0.4814,0.7297,0.4895,-3.1509,-0.9613,0.9079,22.531841,88.410622,28.00
0.4819,0.6765,0.4348,-4.3640,3.1433,4.0588,22.531860,88.410553,27.13
0.5752,0.8005,0.4709,-4.8981,1.3962,1.1139,22.531876,88.410477,27.74
0.4702,0.6682,0.4583,-3.1357,0.5493,-0.1526,22.531893,88.410408,28.02
0.5208,0.7236,0.3679,-4.9667,0.8392,-2.0828,22.531910,88.410332,28.02
0.4507,0.7666,0.4246,-2.8992,-2.5482,2.8992,22.531931,88.410255,30.26
0.4346,0.7454,0.4512,-1.8005,0.4272,1.8616,22.531950,88.410172,31.80
0.4172,0.7197,0.3179,-1.3733,4.9286,-4.2801,22.531971,88.410088,32.54
0.4653,0.7805,0.3933,1.2131,7.1335,-9.0942,22.531990,88.410004,33.69
0.4309,0.6724,0.4207,-2.3651,-1.3885,-0.2213,22.532011,88.409912,34.28
0.3999,0.7036,0.4500,-5.2567,2.4185,-0.0153,22.532036,88.409821,35.93
0.5420,0.7908,0.4753,-0.9155,2.7390,-0.3967,22.532061,88.409721,36.95
0.4839,0.7432,0.5457,-2.4414,-1.6937,-0.9842,22.532082,88.409622,36.35
0.4729,0.7583,0.5264,0.5417,0.1068,-3.9978,22.532103,88.409531,34.39
0.4465,0.6821,0.6299,-2.1362,2.1286,0.7553,22.532120,88.409447,31.08
0.4707,0.6965,0.5017,-3.0899,-0.4044,-1.2970,22.532137,88.409370,27.71
0.5786,0.7996,0.3408,-4.6463,2.7313,3.0441,22.532152,88.409302,25.61
0.3853,0.6624,0.5237,-5.3558,-6.6071,4.7302,22.532167,88.409233,26.41
0.5425,0.6748,0.3386,-4.4785,-12.5427,9.7885,22.532188,88.409164,28.72
0.3669,0.8250,0.5210,-1.6632,-1.1978,4.9210,22.532209,88.409088,31.08
0.3923,0.7930,0.4624,-1.7471,-8.0719,6.3553,22.532230,88.408997,33.91
0.4927,0.6931,0.4006,-2.2888,4.0207,-0.9613,22.532251,88.408905,37.32
0.4526,0.6936,0.3381,0.3204,1.5793,-3.2578,22.532272,88.408806,37.71
0.5776,0.7974,0.3960,1.5182,5.5466,-7.3395,22.532290,88.408707,37.13
0.4077,0.6853,0.4146,-2.2202,5.1956,-10.5286,22.532307,88.408607,38.26
0.4106,0.7224,0.4297,-3.4485,-2.0142,-6.1417,22.532326,88.408501,39.06
0.4875,0.7261,0.5515,-2.9831,0.3204,4.7150,22.532347,88.408394,39.76
0.3762,0.6548,0.5869,-1.5640,-6.5460,2.7695,22.532368,88.408287,39.71
0.4910,0.6050,0.4629,-4.6234,-0.4807,7.7438,22.532391,88.408188,39.32
0.4832,0.7639,0.5227,-1.4420,-1.3885,-0.7324,22.532412,88.408081,38.48
0.3735,0.6484,0.4753,-1.7242,0.0381,-4.3030,22.532433,88.407982,38.00
0.5142,0.8157,0.5254,-1.4954,-2.6321,1.8692,22.532455,88.407883,37.00
0.4158,0.6167,0.5112,-2.4719,-2.5940,-0.1144,22.532476,88.407784,36.39
0.4531,0.7183,0.4800,-2.5177,1.7090,-1.8616,22.532499,88.407692,35.71
0.4875,0.7534,0.4417,-2.6550,2.5253,-3.1128,22.532522,88.407600,34.65
0.6138,0.8127,0.4307,-0.2060,0.3967,3.8147,22.532545,88.407509,35.08
0.4199,0.7502,0.4204,2.0065,2.4872,-1.3351,22.532570,88.407417,35.37
0.4636,0.7236,0.3933,-2.8305,0.4425,8.9645,22.532593,88.407326,35.54
0.5242,0.7043,0.4553,-2.3956,-0.0992,-8.0109,22.532616,88.407227,36.60
0.2986,0.6641,0.5991,-8.0719,-1.3504,-1.2283,22.532639,88.407135,36.82
0.3901,0.7456,0.4448,-3.7003,-0.9079,0.5112,22.532669,88.407036,37.65
0.4319,0.7539,0.5654,-1.8692,3.2425,4.6463,22.532690,88.406937,37.65
0.4214,0.6565,0.4033,-3.2883,-2.5406,-2.8534,22.532713,88.406837,39.43
0.4380,0.8337,0.4421,-2.6093,1.2131,5.3482,22.532738,88.406731,40.60
0.0029,0.5593,0.7024,-4.7379,-5.4092,2.0828,22.532763,88.406624,41.74
0.4504,0.7058,0.4556,-4.5013,0.9003,-1.3733,22.532785,88.406509,42.71
0.4871,0.7712,0.3809,-3.3569,3.3951,-2.4872,22.532810,88.406395,43.80
0.4934,0.7798,0.4304,-4.1046,0.9232,2.2049,22.532835,88.406281,44.76
0.4866,0.7661,0.4988,-2.8152,-1.8311,1.5411,22.532860,88.406158,45.39
0.6162,0.7556,0.3894,-5.0125,1.4267,0.7706,22.532890,88.406036,46.45
0.4692,0.6978,0.4143,-4.2953,-2.9602,1.5564,22.532919,88.405914,47.41
0.4734,0.7461,0.4504,-2.0065,0.6332,0.9766,22.532949,88.405785,48.08
0.4536,0.7354,0.4778,-3.0899,0.2289,7.0343,22.532980,88.405663,48.60
0.5095,0.7393,0.4192,-3.7231,1.4648,-1.1368,22.533009,88.405533,49.54
0.3940,0.7434,0.4524,-2.6855,-0.8469,-0.1297,22.533037,88.405396,50.10
0.4712,0.6292,0.4246,-3.3646,3.6621,3.3569,22.533066,88.405266,50.82
0.4502,0.7156,0.4448,-1.3504,-0.7477,-2.0447,22.533096,88.405128,51.62
0.4133,0.6987,0.5195,-4.5471,2.3727,2.5330,22.533125,88.404991,52.02
0.5107,0.7502,0.5103,-3.7537,0.5646,2.4414,22.533157,88.404854,52.34
0.3606,0.7175,0.4951,-2.7008,-1.2054,-0.0916,22.533188,88.404716,51.63
0.3887,0.6047,0.4729,-1.7853,0.7858,-3.0594,22.533218,88.404587,50.86
0.5217,0.7322,0.4817,-4.0436,2.0142,-3.0060,22.533245,88.404449,49.63
0.5752,0.7612,0.5410,-0.8011,2.5711,1.1597,22.533270,88.404327,47.60
0.5374,0.7012,0.6389,-3.9597,-0.0305,5.6686,22.533298,88.404205,45.13
0.4778,0.6553,0.5500,-4.4327,-2.7542,6.0806,22.533327,88.404091,42.91
0.4204,0.6912,0.5715,-3.8757,3.4180,1.7776,22.533352,88.403984,40.32
0.4478,0.6204,0.6001,-3.9520,0.3357,6.6528,22.533375,88.403885,37.04
0.3071,0.6086,0.4641,21.7285,-18.4708,-59.2728,22.533394,88.403793,33.37
0.6812,0.9241,0.5378,-14.4424,6.7368,-1.6937,22.533409,88.403709,29.35
0.4822,0.7361,0.4890,-2.6016,-0.1450,3.3264,22.533424,88.403641,26.87
0.5151,0.7273,0.5569,-2.3727,-1.8692,-1.9226,22.533438,88.403572,26.54
0.4385,0.6858,0.4429,-4.0817,1.7929,-0.9537,22.533453,88.403496,26.98
0.5518,0.7590,0.4426,-4.6234,-0.1755,0.3204,22.533468,88.403427,27.58
0.5972,0.7241,0.5225,-3.4180,-0.6332,1.4114,22.533482,88.403358,25.98
0.5669,0.5803,0.4775,-7.5455,-6.8283,-0.9613,22.533501,88.403290,25.39
0.6458,0.7280,0.4180,-7.9498,-9.5062,-5.0278,22.533522,88.403229,23.59
0.5742,0.5725,0.4141,-10.9024,-10.9863,-2.2736,22.533548,88.403175,22.02
0.5835,0.6711,0.4893,-9.7046,-9.3002,-2.5482,22.533583,88.403130,21.28
0.5369,0.6704,0.4668,-7.0114,-0.8163,-1.8692,22.533625,88.403099,21.43
0.5024,0.7905,0.4946,0.0000,-2.7237,6.9809,22.533672,88.403076,21.87
0.5046,0.7812,0.4497,-1.4114,6.3629,4.3030,22.533726,88.403061,22.48
0.4324,0.6790,0.3923,-0.1450,2.5940,3.1433,22.533779,88.403046,23.41
0.4336,0.7554,0.5366,0.6561,4.6463,6.6910,22.533836,88.403030,23.85
0.4131,0.6501,0.5203,-1.8234,6.8512,5.9052,22.533890,88.403000,24.46
0.4934,0.7512,0.4995,0.4654,5.6686,4.8370,22.533939,88.402962,24.80
0.4265,0.7122,0.4758,-0.1144,5.3558,-1.2817,22.533987,88.402916,25.76
0.4900,0.8325,0.5159,1.8311,4.7073,6.0806,22.534035,88.402863,26.72
0.3552,0.6021,0.4829,-4.8828,7.8583,12.1231,22.534075,88.402809,27.39
0.3296,0.7451,0.5632,8.5144,7.9880,-1.2741,22.534109,88.402740,27.87
0.5012,0.7246,0.4963,-8.0948,2.9221,2.1286,22.534159,88.402596,29.21
0.5994,0.6528,0.3943,-0.0076,3.8757,-3.5095,22.534176,88.402519,30.45
0.5708,0.8477,0.6460,-1.9989,-7.7591,22.3999,22.534191,88.402435,31.47
0.4280,0.4780,0.4341,-7.0648,-0.4959,5.2567,22.534212,88.402351,32.63
0.5586,0.8374,0.5386,-3.5553,-2.3422,7.4615,22.534231,88.402267,32.97
0.2908,0.6245,0.4348,-5.5847,1.1368,3.3264,22.534250,88.402176,33.13
0.3228,0.6050,0.4226,-8.7051,5.6381,-4.0283,22.534271,88.402092,33.19
0.5222,0.6865,0.5659,-1.1902,-0.0229,3.8681,22.534294,88.402008,33.24
0.4690,0.8232,0.4614,-0.3357,-7.6828,11.5509,22.534313,88.401924,33.52
0.6340,0.8872,0.5557,-8.9188,4.9591,8.5449,22.534336,88.401833,33.61
0.4624,0.5120,0.3979,-3.2730,-0.2747,0.7172,22.534357,88.401741,33.35
0.4153,0.6243,0.5557,-4.1962,-0.7324,2.3880,22.534376,88.401657,32.08
0.4622,0.8271,0.4744,-4.2038,3.3798,3.6774,22.534395,88.401581,30.24
0.6135,0.8699,0.3904,4.6997,13.2523,5.2643,22.534412,88.401497,28.72
0.5520,0.7915,0.3171,-1.9913,-16.8839,-12.7945,22.534430,88.401428,28.02
0.6592,0.7749,0.6460,-0.9766,12.0010,8.6517,22.534447,88.401352,27.26
0.5613,0.6079,0.7551,-0.1984,0.4654,-7.8278,22.534462,88.401291,22.39
0.5637,0.5474,0.6150,-5.0583,3.4027,4.2114,22.534473,88.401253,13.54
0.5532,0.6526,0.5825,-3.8986,-0.8163,0.0458,22.534481,88.401230,6.56
0.5081,0.6501,0.4961,-2.1057,0.5951,1.4420,22.534483,88.401215,2.48
0.5193,0.7017,0.4407,-2.1667,1.6556,1.9608,22.534485,88.401215,0.81
0.5115,0.6882,0.4529,-2.6627,1.1139,-0.8469,22.534487,88.401215,0.13
0.4902,0.6758,0.4612,-4.1275,1.1292,1.9608,22.534487,88.401215,0.09
0.5073,0.6731,0.4192,-4.0665,2.1591,0.2670,22.534487,88.401215,0.07
0.5022,0.6724,0.4578,-4.3488,1.0223,1.6708,22.534489,88.401215,0.09
0.5115,0.7109,0.4583,-3.4637,1.0834,2.4872,22.534491,88.401215,0.02
0.5347,0.7288,0.4746,-2.8687,1.0910,2.3880,22.534491,88.401215,0.02
0.4946,0.6855,0.4170,-2.5635,-0.3967,-0.4730,22.534491,88.401215,0.19
0.5007,0.7021,0.4348,-3.1433,-0.6638,0.0687,22.534492,88.401222,0.26
0.4951,0.6790,0.4409,-2.7618,0.1373,-0.6638,22.534492,88.401222,0.06
0.5352,0.7131,0.4807,-2.3575,0.6561,0.9766,22.534492,88.401222,0.02
0.5120,0.7190,0.4490,-2.3422,0.4807,0.8011,22.534492,88.401222,0.02
0.5078,0.7002,0.4709,-2.5330,0.3052,0.9918,22.534492,88.401222,0.17
0.5142,0.7075,0.4783,-2.2125,-0.5875,1.2970,22.534492,88.401222,0.09
0.5642,0.7517,0.3689,-3.2883,2.0599,1.9531,22.534492,88.401222,0.50
0.4905,0.6851,0.4890,-8.0490,3.7842,3.1204,22.534494,88.401215,3.17
0.4819,0.7749,0.4033,-1.5717,-0.3052,2.7618,22.534498,88.401199,4.93
0.4722,0.8865,0.3433,-1.8005,-0.7019,1.1673,22.534504,88.401184,8.85
0.5388,0.7043,0.3945,-3.6240,6.1951,-4.0131,22.534513,88.401154,12.22
0.5386,0.8013,0.4756,-2.9984,-0.1450,1.9302,22.534523,88.401115,13.61
0.6472,0.6704,0.4568,-2.3651,0.1373,4.6539,22.534531,88.401085,13.17
0.5081,0.6289,0.5061,-4.0588,0.9079,3.2730,22.534538,88.401047,12.33
0.5186,0.6602,0.4485,-2.1210,0.0992,-0.4883,22.534546,88.401024,10.76
0.4224,0.6409,0.3533,-1.1673,1.1673,-3.8605,22.534554,88.400993,10.63
0.4663,0.7136,0.3845,-4.4861,3.5172,-1.6403,22.534559,88.400963,11.13
0.5664,0.7107,0.4216,-6.3477,2.4872,-0.3738,22.534569,88.400932,12.83
0.5312,0.7139,0.4502,-5.6305,2.2125,7.6065,22.534575,88.400894,13.39
0.5332,0.7959,0.5171,-1.3809,-0.9308,0.8163,22.534582,88.400856,13.87
0.5361,0.8396,0.5349,-1.7242,-0.3433,5.0354,22.534590,88.400818,15.26
0.5361,0.7202,0.4863,-1.7700,-1.3962,4.0512,22.534599,88.400780,16.11
0.5759,0.7908,0.5229,-2.7695,0.8392,8.6670,22.534607,88.400734,16.28
0.5142,0.6704,0.4973,-4.1504,0.5112,1.2054,22.534615,88.400696,14.96
0.5413,0.7712,0.5149,-3.1204,2.8000,3.2043,22.534620,88.400658,13.87
0.5798,0.7166,0.4619,-3.3417,1.3351,2.0981,22.534624,88.400620,13.08
0.4365,0.6753,0.4292,-1.1978,-2.0065,10.4904,22.534630,88.400581,12.96
0.4421,0.6760,0.4360,-4.0283,-0.4044,-0.5722,22.534634,88.400543,13.59
0.6064,0.7878,0.4373,-0.4959,-1.8997,5.0125,22.534641,88.400505,15.30
0.4768,0.5027,0.5547,-0.2289,-1.8539,-2.5024,22.534651,88.400467,16.35
0.3506,0.6113,0.4973,-2.4567,-3.1281,-11.0092,22.534657,88.400429,12.39
0.7354,0.8445,0.2605,1.2283,-9.9411,-7.3166,22.534658,88.400398,11.59
0.6492,0.8899,0.3376,-0.8316,-1.9302,0.9613,22.534668,88.400360,14.20
0.4512,0.8230,0.3586,2.2125,0.7858,-2.8610,22.534679,88.400314,17.50
0.5942,0.8232,0.4756,-4.0665,5.5542,8.7357,22.534695,88.400276,17.41
0.5391,0.6621,0.2971,-4.8294,-3.7994,-1.4191,22.534706,88.400223,18.69
0.5115,0.7947,0.5344,-3.8452,1.7700,1.9760,22.534719,88.400169,20.61
0.4346,0.6262,0.5349,-1.3046,1.1063,3.5477,22.534735,88.400116,21.59
0.4956,0.6646,0.6240,-4.7989,1.1978,4.4022,22.534746,88.400063,20.85
0.5808,0.6099,0.4844,-8.5678,4.5624,12.5504,22.534758,88.400009,18.59
0.4351,0.4961,0.3667,-6.5536,5.8975,-2.1362,22.534769,88.399963,16.54
0.4500,0.7307,0.4104,-1.5945,1.5259,1.9608,22.534779,88.399925,14.89
0.4580,0.7539,0.3752,-4.2496,0.4578,0.7401,22.534784,88.399887,14.35
0.3547,0.6499,0.3906,-10.6506,4.2725,7.5760,22.534796,88.399841,15.80
0.5073,0.8018,0.5359,-3.8986,0.8621,9.4681,22.534807,88.399796,17.80
0.4956,0.7947,0.4863,-1.1368,-0.0992,-0.2518,22.534819,88.399750,19.28
0.5483,0.6038,0.3389,-5.5389,0.8011,-8.2321,22.534830,88.399696,19.30
0.4495,0.7126,0.5874,-7.1487,2.4261,11.6501,22.534843,88.399643,20.39
0.5750,0.6929,0.3469,-3.8147,0.0381,-3.6621,22.534855,88.399590,21.28
0.5396,0.6194,0.3989,-4.2191,3.8605,-4.5013,22.534864,88.399529,21.84
0.5293,0.6284,0.3354,-6.1111,0.4959,-4.9896,22.534874,88.399475,20.41
0.5173,0.6006,0.4919,-5.1804,1.9455,-3.5553,22.534880,88.399422,20.95
0.5261,0.6746,0.4956,-5.5847,3.2959,5.6686,22.534887,88.399361,21.35
0.6042,0.5664,0.4580,-5.6152,2.7542,5.7526,22.534893,88.399307,20.83
0.4531,0.5752,0.5728,-3.9215,-5.7678,0.5569,22.534903,88.399254,20.32
0.5208,0.8103,0.4675,-0.3357,2.1362,-7.3013,22.534914,88.399200,18.21
0.5894,0.6685,0.4443,-4.3335,0.0916,-0.2441,22.534924,88.399162,16.06
0.5713,0.8079,0.4556,1.7853,1.3733,0.6180,22.534933,88.399124,14.28
0.5244,0.6699,0.4075,-4.0741,0.8850,5.1346,22.534943,88.399086,13.74
0.5903,0.7195,0.5793,-5.5008,-4.8065,8.8043,22.534956,88.399048,14.96
0.4998,0.5513,0.4590,-5.4779,-0.1907,-3.9902,22.534967,88.399010,15.17
0.5459,0.6221,0.5352,-2.6093,1.6403,2.9755,22.534979,88.398972,14.63
0.5237,0.6287,0.3433,0.7172,-0.3128,-1.3962,22.534985,88.398933,10.93
0.5154,0.6765,0.5645,-5.4092,1.7624,10.6049,22.534992,88.398911,9.32
0.4419,0.7971,0.3682,-4.3030,2.1362,-1.3733,22.535000,88.398888,10.19
0.4504,0.6707,0.4912,-3.5172,1.3046,2.3193,22.535007,88.398857,12.46
0.4026,0.6665,0.4851,-0.4120,-3.2043,-2.5787,22.535015,88.398811,15.72
0.4702,0.7183,0.5632,6.6757,-3.2730,-2.5940,22.535021,88.398766,17.22
0.5632,0.7815,0.5403,-10.5667,0.9079,6.2637,22.535030,88.398720,17.83
0.4319,0.7864,0.4687,-4.0512,2.5787,4.1275,22.535038,88.398621,16.56
0.5354,0.7578,0.3816,-4.1656,0.6790,-1.1292,22.535046,88.398575,17.95
0.4426,0.6519,0.5078,-1.0757,-1.0986,1.4877,22.535059,88.398529,19.78
0.5459,0.6924,0.3640,-2.1362,3.5477,-6.8512,22.535072,88.398468,21.56
0.5745,0.7473,0.3333,1.3885,-4.8523,-10.1776,22.535088,88.398415,21.91
0.5281,0.6326,0.5952,-5.8746,5.2567,3.3264,22.535101,88.398354,21.82
0.5312,0.6409,0.5029,-3.2349,-0.1373,-5.7144,22.535112,88.398300,19.89
0.4697,0.6194,0.3428,-6.2180,4.6844,1.5411,22.535122,88.398254,17.59
0.5894,0.6936,0.5320,-3.2883,-0.0534,0.7095,22.535128,88.398209,16.54
0.7170,0.8687,0.4646,0.6027,4.9210,-0.9918,22.535133,88.398163,15.28
0.4985,0.8455,0.5015,7.0267,-7.5302,-7.2021,22.535137,88.398125,14.22
0.5286,0.7561,0.5061,-5.5466,1.0910,4.7913,22.535143,88.398079,14.87
0.6426,0.6321,0.5684,-8.6746,7.4387,8.1482,22.535149,88.398041,14.06
0.5676,0.7485,0.4751,-2.6169,0.4120,0.0458,22.535152,88.398010,13.26
0.5842,0.8252,0.5730,0.7401,2.2049,5.0735,22.535158,88.397972,12.41
0.4270,0.7087,0.3682,-4.9896,0.2289,0.0458,22.535164,88.397934,13.43
0.2632,0.6089,0.3782,-4.8981,-10.9863,-6.1569,22.535173,88.397896,16.72
0.7812,0.8601,0.4778,2.8458,-7.2403,2.7313,22.535183,88.397850,19.08
0.5154,0.5293,0.5178,-1.0757,5.3787,-3.6087,22.535194,88.397797,18.69
0.3835,0.5703,0.4595,-5.6763,-6.8283,-8.5602,22.535202,88.397751,15.69
0.5767,0.6130,0.5122,-0.5188,1.7014,-7.6675,22.535212,88.397720,11.67
0.4836,0.6174,0.3931,-8.5602,2.1515,3.2730,22.535215,88.397697,8.19
0.5186,0.7144,0.4246,-3.1586,-1.6403,3.3569,22.535219,88.397675,8.87
0.5332,0.6917,0.5037,-1.8005,2.5940,-1.1215,22.535225,88.397652,7.85
0.5127,0.6262,0.4885,-3.1281,-0.8698,0.2899,22.535229,88.397636,5.65
0.4968,0.7109,0.4961,-3.3340,2.1973,0.4044,22.535231,88.397621,3.50
0.5188,0.7048,0.4551,-2.9144,-0.3433,0.6104,22.535234,88.397621,2.63
0.4802,0.6553,0.4292,-1.7776,-0.8774,-1.2054,22.535234,88.397614,1.96
0.5244,0.7334,0.4177,-2.7390,1.9226,1.2207,22.535236,88.397606,2.22
0.5066,0.6902,0.5339,-2.6932,-0.1755,-0.4807,22.535236,88.397598,2.57
0.4910,0.7083,0.4795,-1.8692,0.3967,-1.9302,22.535238,88.397598,0.98
0.4795,0.7034,0.4080,-2.3727,0.9155,-0.4959,22.535238,88.397591,0.57
0.5366,0.7344,0.3979,-3.5400,3.2120,1.0300,22.535238,88.397591,0.61
0.5554,0.8357,0.4150,-4.2343,0.9766,0.9460,22.535240,88.397583,2.22
0.4922,0.8403,0.4297,-0.5798,-1.1139,-3.7613,22.535246,88.397575,5.37
0.5300,0.7324,0.4788,-2.4872,0.8926,1.0910,22.535254,88.397552,10.30
0.4631,0.5823,0.5122,-6.4621,1.1826,-0.6332,22.535259,88.397522,11.13
0.5005,0.6946,0.3242,-2.3651,1.0834,0.2747,22.535265,88.397491,10.59
0.6516,0.8210,0.4687,-3.4103,-3.4332,9.6588,22.535273,88.397469,10.67
0.4834,0.6135,0.5449,-5.8823,-3.5095,7.6904,22.535282,88.397438,12.09
0.4639,0.6147,0.3359,-1.3275,2.6627,-3.6774,22.535290,88.397408,12.70
0.6035,0.8162,0.4612,-0.2823,-0.7172,-7.6370,22.535297,88.397369,13.24
0.5647,0.6497,0.5491,-2.2049,5.5313,5.6915,22.535307,88.397339,13.00
0.5063,0.7383,0.5393,-4.7455,2.3575,3.6163,22.535315,88.397301,13.15
0.4023,0.6853,0.5483,-7.4921,0.4730,0.3510,22.535324,88.397270,11.96
0.4885,0.7280,0.4666,-2.1591,-1.7853,-2.2507,22.535332,88.397240,10.78
0.5017,0.8103,0.4866,-2.3651,3.3798,3.1586,22.535337,88.397217,10.46
0.5127,0.6206,0.3665,-7.5226,3.0289,4.2191,22.535347,88.397186,12.02
0.5388,0.7651,0.4731,-3.2501,4.4250,-0.1907,22.535360,88.397148,13.22
0.5796,0.6379,0.3872,-4.6692,-0.1755,9.9716,22.535378,88.397118,14.11
0.3235,0.4292,0.2979,2.4719,-16.7618,-0.6409,22.535391,88.397079,15.19
0.5903,0.6567,0.5081,-14.5340,-1.7471,18.9590,22.535398,88.397034,14.33
0.5278,0.5432,0.4980,-3.8528,2.2125,1.1444,22.535404,88.397003,12.82
0.5398,0.5393,0.4243,-6.4621,0.4196,0.6409,22.535414,88.396973,10.63
0.5142,0.7466,0.3550,-0.0687,1.2054,2.9449,22.535419,88.396950,8.00
0.6418,0.7861,0.3701,-3.7537,2.7390,6.9885,22.535425,88.396935,4.59
0.3960,0.5911,0.3535,2.2659,-2.5177,-5.7373,22.535429,88.396927,4.33
0.5693,0.8972,0.4705,-2.4643,-4.8370,0.7172,22.535431,88.396904,7.83
0.2749,0.6506,0.4009,-5.0430,-5.1651,-7.7362,22.535437,88.396889,8.07
0.4180,0.7224,0.4004,-4.5395,2.8992,-1.5717,22.535437,88.396858,8.70
0.4448,0.5920,0.2229,-3.2349,4.7150,2.0218,22.535444,88.396820,12.96
0.5859,0.8354,0.5776,-5.6152,-12.1613,-0.5798,22.535458,88.396767,14.70
